Time,header.seq,header.stamp.secs,header.stamp.nsecs,header.frame_id,orientation.x,orientation.y,orientation.z,orientation.w,orientation_covariance_0,orientation_covariance_1,orientation_covariance_2,orientation_covariance_3,orientation_covariance_4,orientation_covariance_5,orientation_covariance_6,orientation_covariance_7,orientation_covariance_8,angular_velocity.x,angular_velocity.y,angular_velocity.z,angular_velocity_covariance_0,angular_velocity_covariance_1,angular_velocity_covariance_2,angular_velocity_covariance_3,angular_velocity_covariance_4,angular_velocity_covariance_5,angular_velocity_covariance_6,angular_velocity_covariance_7,angular_velocity_covariance_8,linear_acceleration.x,linear_acceleration.y,linear_acceleration.z,linear_acceleration_covariance_0,linear_acceleration_covariance_1,linear_acceleration_covariance_2,linear_acceleration_covariance_3,linear_acceleration_covariance_4,linear_acceleration_covariance_5,linear_acceleration_covariance_6,linear_acceleration_covariance_7,linear_acceleration_covariance_8
94.155,2759,94,154000000,IMU,-2.3971302914491455e-05,2.7865359219597266e-05,3.443780312599186e-05,0.999999998731468,0.0,0.0,0.0,0.0,0.0,0.0,0.0,0.0,0.0,0.044991428400785564,0.026969432525172532,0.04113409462201445,0.0,0.0,0.0,0.0,0.0,0.0,0.0,0.0,0.0,0.08339119217778358,-0.11089428509252508,9.479962061805894,0.0,0.0,0.0,0.0,0.0,0.0,0.0,0.0,0.0
94.165,2760,94,164000000,IMU,-2.355064550202661e-05,2.729738598370677e-05,4.09070959517393e-05,0.9999999985134148,0.0,0.0,0.0,0.0,0.0,0.0,0.0,0.0,0.0,-0.004677349768507672,0.044088181887651345,-0.0026382210172203324,0.0,0.0,0.0,0.0,0.0,0.0,0.0,0.0,0.0,-0.010896819009370028,-0.07264808556299712,9.496357464752576,0.0,0.0,0.0,0.0,0.0,0.0,0.0,0.0,0.0
94.175,2761,94,174000000,IMU,-2.280343828016442e-05,2.6533669879315868e-05,5.092220293275679e-05,0.9999999980914486,0.0,0.0,0.0,0.0,0.0,0.0,0.0,0.0,0.0,-0.03889632674262118,-0.009839502972392921,-0.06432325164632413,0.0,0.0,0.0,0.0,0.0,0.0,0.0,0.0,0.0,0.027829654621726055,0.0023348456979470677,9.552070426927425,0.0,0.0,0.0,0.0,0.0,0.0,0.0,0.0,0.0
94.185,2762,94,184000000,IMU,-2.179965814773119e-05,2.5419428925026575e-05,6.67314747871705e-05,0.9999999972127689,0.0,0.0,0.0,0.0,0.0,0.0,0.0,0.0,0.0,0.03549068761958072,-0.03733376814553879,-0.08950097926907194,0.0,0.0,0.0,0.0,0.0,0.0,0.0,0.0,0.0,0.028943800737107103,-0.03258333416691563,9.627573756759812,0.0,0.0,0.0,0.0,0.0,0.0,0.0,0.0,0.0
94.195,2763,94,194000000,IMU,-2.1119274973450316e-05,2.4242725715234742e-05,8.326982801959219e-05,0.9999999960162012,0.0,0.0,0.0,0.0,0.0,0.0,0.0,0.0,0.0,-0.0009392367220303471,-0.11462923941974185,-0.08583437734188085,0.0,0.0,0.0,0.0,0.0,0.0,0.0,0.0,0.0,-0.038052285802292744,-0.0003195488859726108,9.663794205633103,0.0,0.0,0.0,0.0,0.0,0.0,0.0,0.0,0.0
94.205,2764,94,204000000,IMU,-2.0969406936894682e-05,2.2935987502586094e-05,0.00010538400571143144,0.9999999939642179,0.0,0.0,0.0,0.0,0.0,0.0,0.0,0.0,0.0,0.03372780564097267,0.028357759977236587,0.039824607904113664,0.0,0.0,0.0,0.0,0.0,0.0,0.0,0.0,0.0,-0.032710003767526516,-0.007693888376581724,9.643302710773881,0.0,0.0,0.0,0.0,0.0,0.0,0.0,0.0,0.0
94.217,2765,94,214000000,IMU,-2.172759219086485e-05,2.1978197788220042e-05,0.00013410848094744362,0.9999999905298929,0.0,0.0,0.0,0.0,0.0,0.0,0.0,0.0,0.0,-0.00734291886026811,0.003592971312967354,0.01944578782536774,0.0,0.0,0.0,0.0,0.0,0.0,0.0,0.0,0.0,0.03774108994183667,0.0861821259392797,9.6413619150194,0.0,0.0,0.0,0.0,0.0,0.0,0.0,0.0,0.0
94.225,2766,94,224000000,IMU,-2.2440433418634243e-05,2.1557623899900727e-05,0.0001612390422085027,0.9999999865168335,0.0,0.0,0.0,0.0,0.0,0.0,0.0,0.0,0.0,-0.016207025511004683,0.02572366108695856,-0.002228895555869556,0.0,0.0,0.0,0.0,0.0,0.0,0.0,0.0,0.0,-0.01436162857114333,-0.08927132103226627,9.710692009939441,0.0,0.0,0.0,0.0,0.0,0.0,0.0,0.0,0.0
94.235,2767,94,234000000,IMU,-3.82851778940807e-06,2.8511205873809666e-06,0.00018402692181901771,0.9999999830556526,0.0,0.0,0.0,0.0,0.0,0.0,0.0,0.0,0.0,-0.05420968079232454,-0.001278743960236103,-0.01289555012727373,0.0,0.0,0.0,0.0,0.0,0.0,0.0,0.0,0.0,-0.0009528319954034488,0.019174680647750162,11.804996192712752,0.0,0.0,0.0,0.0,0.0,0.0,0.0,0.0,0.0
94.245,2768,94,244000000,IMU,-7.492975823853602e-05,7.833265415826248e-05,0.00019965879142918032,0.9999999741929466,0.0,0.0,0.0,0.0,0.0,0.0,0.0,0.0,0.0,-0.07168373471215743,0.062268297082060484,0.08641716551351283,0.0,0.0,0.0,0.0,0.0,0.0,0.0,0.0,0.0,0.011601440974772632,0.0486662460792505,9.977775368425142,0.0,0.0,0.0,0.0,0.0,0.0,0.0,0.0,0.0
94.255,2769,94,254000000,IMU,-7.386631408787982e-05,7.437456948477636e-05,0.00022226752711127428,0.9999999698046682,0.0,0.0,0.0,0.0,0.0,0.0,0.0,0.0,0.0,-0.028158234841637764,-0.014219411983835424,0.09566315855368546,0.0,0.0,0.0,0.0,0.0,0.0,0.0,0.0,0.0,-0.03309096581650284,-0.02185328739161509,9.513842224738534,0.0,0.0,0.0,0.0,0.0,0.0,0.0,0.0,0.0
94.265,2770,94,264000000,IMU,-3.691298872160023e-05,3.189457549429843e-05,0.00026237684508682033,0.9999999643892786,0.0,0.0,0.0,0.0,0.0,0.0,0.0,0.0,0.0,-0.03557008103378778,0.008689325852868548,0.10090658589868218,0.0,0.0,0.0,0.0,0.0,0.0,0.0,0.0,0.0,-0.021952670595406655,-0.039622335743546684,9.543715242704332,0.0,0.0,0.0,0.0,0.0,0.0,0.0,0.0,0.0
94.275,2771,94,274000000,IMU,3.1368017600867783e-06,-1.3873073885758994e-05,0.0002953722449334245,0.9999999562764667,0.0,0.0,0.0,0.0,0.0,0.0,0.0,0.0,0.0,0.015947961339611842,0.01356525347210821,0.00820602871881533,0.0,0.0,0.0,0.0,0.0,0.0,0.0,0.0,0.0,-0.012230904830285064,0.025754019573373296,10.400052873506995,0.0,0.0,0.0,0.0,0.0,0.0,0.0,0.0,0.0
94.285,2772,94,284000000,IMU,-2.7868036757618675e-05,2.6129786595976925e-05,0.00031501687921358566,0.9999999496524852,0.0,0.0,0.0,0.0,0.0,0.0,0.0,0.0,0.0,-0.0018168468914720193,-0.03979406247454927,-0.0017237817192275614,0.0,0.0,0.0,0.0,0.0,0.0,0.0,0.0,0.0,0.01815103094530825,-0.10632077396285466,9.776179230842208,0.0,0.0,0.0,0.0,0.0,0.0,0.0,0.0,0.0
94.294,2773,94,294000000,IMU,-2.5525732655336634e-05,2.0340969686957485e-05,0.00033855884399117115,0.9999999421562938,0.0,0.0,0.0,0.0,0.0,0.0,0.0,0.0,0.0,-0.03548555175360851,-0.02569882605710602,0.04504568442558958,0.0,0.0,0.0,0.0,0.0,0.0,0.0,0.0,0.0,-0.019752430708728366,-0.07582030682710443,9.591070931351382,0.0,0.0,0.0,0.0,0.0,0.0,0.0,0.0,0.0
94.305,2774,94,304000000,IMU,1.7854640188200526e-05,1.1717999736616085e-05,0.00036604764483769993,0.9999999327765088,0.0,0.0,0.0,0.0,0.0,0.0,0.0,0.0,0.0,-0.002630083469526437,0.005056436842718552,-0.03083986434807779,0.0,0.0,0.0,0.0,0.0,0.0,0.0,0.0,0.0,-0.02574598135558281,-0.039289944760239885,10.039645018517321,0.0,0.0,0.0,0.0,0.0,0.0,0.0,0.0,0.0
94.315,2775,94,314000000,IMU,3.4582691409875694e-07,7.812251258526327e-06,0.0003963361656295967,0.9999999214282433,0.0,0.0,0.0,0.0,0.0,0.0,0.0,0.0,0.0,-0.04924089489655373,-0.0031864567730767257,-0.02786008058581929,0.0,0.0,0.0,0.0,0.0,0.0,0.0,0.0,0.0,-0.183214936955584,0.029303236933455587,9.59540343436116,0.0,0.0,0.0,0.0,0.0,0.0,0.0,0.0,0.0
94.325,2776,94,324000000,IMU,6.470471956461194e-06,-3.0034759245054348e-06,0.0004070777747471254,0.9999999171183953,0.0,0.0,0.0,0.0,0.0,0.0,0.0,0.0,0.0,-0.005333297824357001,0.03881464630609773,-0.024038993008035355,0.0,0.0,0.0,0.0,0.0,0.0,0.0,0.0,0.0,0.09385873523514673,0.14364634604867813,9.939022109148807,0.0,0.0,0.0,0.0,0.0,0.0,0.0,0.0,0.0
94.334,2777,94,334000000,IMU,-2.353823538639718e-06,-1.4440396091425165e-06,0.0004281016220051903,0.9999999083606836,0.0,0.0,0.0,0.0,0.0,0.0,0.0,0.0,0.0,-0.021495834667134412,0.027299988991265997,-0.013703700156650117,0.0,0.0,0.0,0.0,0.0,0.0,0.0,0.0,0.0,0.06704988888144847,-0.03801697848997291,9.81376763508652,0.0,0.0,0.0,0.0,0.0,0.0,0.0,0.0,0.0
94.344,2778,94,344000000,IMU,5.29882729904407e-07,2.323363414551114e-10,0.00043828490896801207,0.9999999039530243,0.0,0.0,0.0,0.0,0.0,0.0,0.0,0.0,0.0,-0.09822625589090461,-0.017108716552000563,-0.037799540836220634,0.0,0.0,0.0,0.0,0.0,0.0,0.0,0.0,0.0,-0.027059323842043757,0.06127313601288395,9.827531865861193,0.0,0.0,0.0,0.0,0.0,0.0,0.0,0.0,0.0
94.355,2779,94,354000000,IMU,-3.2222981666829626e-10,4.7379979086743474e-07,0.00043949587996847854,0.9999999034215689,0.0,0.0,0.0,0.0,0.0,0.0,0.0,0.0,0.0,-0.06136566281004031,-0.010200137633192784,0.039733457031222115,0.0,0.0,0.0,0.0,0.0,0.0,0.0,0.0,0.0,0.06812908161836032,-0.06524581925104733,9.8337391740085,0.0,0.0,0.0,0.0,0.0,0.0,0.0,0.0,0.0
94.365,2780,94,364000000,IMU,2.648133995230173e-11,3.4144294415038805e-11,0.0004409222734201791,0.9999999027937698,0.0,0.0,0.0,0.0,0.0,0.0,0.0,0.0,0.0,0.015450598617697773,0.027654605367377943,-0.019791813913349093,0.0,0.0,0.0,0.0,0.0,0.0,0.0,0.0,0.0,-0.0012280934045857637,0.005115064362712907,9.885250865693868,0.0,0.0,0.0,0.0,0.0,0.0,0.0,0.0,0.0
94.375,2781,94,374000000,IMU,-3.343778372381282e-10,5.766937375239025e-07,0.0004428058418573154,0.9999999019613222,0.0,0.0,0.0,0.0,0.0,0.0,0.0,0.0,0.0,-0.0412748788244208,0.031711012006940625,0.029427246756822248,0.0,0.0,0.0,0.0,0.0,0.0,0.0,0.0,0.0,-0.026765954287855262,-0.0023430877239073752,9.844178741482185,0.0,0.0,0.0,0.0,0.0,0.0,0.0,0.0,0.0
94.385,2782,94,384000000,IMU,4.0820941788671714e-10,-1.5051014184871023e-07,0.00044484414949398394,0.9999999010568252,0.0,0.0,0.0,0.0,0.0,0.0,0.0,0.0,0.0,0.012208251471074287,-0.04101292497183653,0.025847356544726748,0.0,0.0,0.0,0.0,0.0,0.0,0.0,0.0,0.0,-0.019365998536812225,-0.07604534887130578,9.852390650948795,0.0,0.0,0.0,0.0,0.0,0.0,0.0,0.0,0.0
94.395,2783,94,394000000,IMU,6.27649742188646e-07,2.965199146216263e-10,0.00044717361419291006,0.9999999000176776,0.0,0.0,0.0,0.0,0.0,0.0,0.0,0.0,0.0,0.0229162566546835,-0.046597491232487964,0.014409219170441936,0.0,0.0,0.0,0.0,0.0,0.0,0.0,0.0,0.0,0.03419041115962792,-0.05946860731346164,9.778821384717217,0.0,0.0,0.0,0.0,0.0,0.0,0.0,0.0,0.0
94.405,2784,94,404000000,IMU,-6.585008514468612e-08,2.1318806820392925e-12,0.000449168708308936,0.9999998991237284,0.0,0.0,0.0,0.0,0.0,0.0,0.0,0.0,0.0,-0.03200393374355321,-0.032738172221127154,-0.007139660778998065,0.0,0.0,0.0,0.0,0.0,0.0,0.0,0.0,0.0,0.06756195696596164,-0.028777336332888502,9.909919392864143,0.0,0.0,0.0,0.0,0.0,0.0,0.0,0.0,0.0
94.415,2785,94,414000000,IMU,2.69247627867225e-11,3.774883577613989e-11,0.0004519893798407093,0.9999998978527952,0.0,0.0,0.0,0.0,0.0,0.0,0.0,0.0,0.0,-0.04352352340341109,0.006995983394396133,-0.01684209817833566,0.0,0.0,0.0,0.0,0.0,0.0,0.0,0.0,0.0,0.06148518848147931,0.0061729371330305855,9.834287425663588,0.0,0.0,0.0,0.0,0.0,0.0,0.0,0.0,0.0
94.425,2786,94,424000000,IMU,-2.260840529131682e-10,4.944911301113182e-07,0.0004547791908382777,0.9999998965878163,0.0,0.0,0.0,0.0,0.0,0.0,0.0,0.0,0.0,-0.03151648751318121,0.017769639740525194,0.0526649308844912,0.0,0.0,0.0,0.0,0.0,0.0,0.0,0.0,0.0,0.08513415587455374,0.09013205338130244,9.773087136183225,0.0,0.0,0.0,0.0,0.0,0.0,0.0,0.0,0.0
94.435,2787,94,434000000,IMU,2.3302769939704746e-11,-2.1023170292292577e-11,0.00045730401263735504,0.9999998954365146,0.0,0.0,0.0,0.0,0.0,0.0,0.0,0.0,0.0,-0.03800747192933855,0.021181469682566102,0.042997687512757586,0.0,0.0,0.0,0.0,0.0,0.0,0.0,0.0,0.0,-0.006217685809124299,0.0686820516591518,9.92511552736004,0.0,0.0,0.0,0.0,0.0,0.0,0.0,0.0,0.0
94.445,2788,94,444000000,IMU,2.938220512943956e-10,-5.180276538246911e-07,0.0004605002351263047,0.999999893969627,0.0,0.0,0.0,0.0,0.0,0.0,0.0,0.0,0.0,-0.027242480379734903,0.039498835631501174,0.0330567811892936,0.0,0.0,0.0,0.0,0.0,0.0,0.0,0.0,0.0,-0.01438860330612644,-0.12962231731311102,9.810813436153284,0.0,0.0,0.0,0.0,0.0,0.0,0.0,0.0,0.0
94.455,2789,94,454000000,IMU,4.6955460933865865e-11,1.0635885243832666e-10,0.0004648549177982402,0.9999998919549469,0.0,0.0,0.0,0.0,0.0,0.0,0.0,0.0,0.0,0.016529230378593638,0.03896519656624334,-0.025986660570200996,0.0,0.0,0.0,0.0,0.0,0.0,0.0,0.0,0.0,-0.0031755102673999124,-0.01970423849651277,9.892551576650025,0.0,0.0,0.0,0.0,0.0,0.0,0.0,0.0,0.0
94.465,2790,94,464000000,IMU,5.1609813698670846e-11,-5.276887196067735e-07,0.0004687830090837195,0.9999998901211,0.0,0.0,0.0,0.0,0.0,0.0,0.0,0.0,0.0,0.007571690089672428,0.05193346245456244,0.09575021066473723,0.0,0.0,0.0,0.0,0.0,0.0,0.0,0.0,0.0,0.009737918474728807,0.06471125089576477,9.647751715894723,0.0,0.0,0.0,0.0,0.0,0.0,0.0,0.0,0.0
94.475,2791,94,474000000,IMU,5.432885741036999e-08,-1.8972799434291536e-08,0.0004734168083402997,0.9999998879382549,0.0,0.0,0.0,0.0,0.0,0.0,0.0,0.0,0.0,0.051464306534956185,0.06618984975158175,0.04047752247451664,0.0,0.0,0.0,0.0,0.0,0.0,0.0,0.0,0.0,0.0030349680439479077,-0.03837343093994398,9.814327392407773,0.0,0.0,0.0,0.0,0.0,0.0,0.0,0.0,0.0
94.485,2792,94,484000000,IMU,-8.900266601129492e-11,1.8575210175391221e-07,0.0004793114166506213,0.9999998851302591,0.0,0.0,0.0,0.0,0.0,0.0,0.0,0.0,0.0,0.07970154317147682,0.014657870124341893,0.03878035761502212,0.0,0.0,0.0,0.0,0.0,0.0,0.0,0.0,0.0,0.02072203444851622,-0.04912315544063828,9.808135622988761,0.0,0.0,0.0,0.0,0.0,0.0,0.0,0.0,0.0
94.495,2793,94,494000000,IMU,-4.252250913357295e-12,2.6508623398838656e-11,0.0004852294946666762,0.9999998822761618,0.0,0.0,0.0,0.0,0.0,0.0,0.0,0.0,0.0,0.027408914596427535,0.05258089436708283,-0.017908049014544774,0.0,0.0,0.0,0.0,0.0,0.0,0.0,0.0,0.0,0.04239588939745327,-0.06007289291233249,9.906553775196425,0.0,0.0,0.0,0.0,0.0,0.0,0.0,0.0,0.0
94.505,2794,94,504000000,IMU,-6.09992697038759e-07,8.32141410830071e-08,0.0004948259747747306,0.9999998775734303,0.0,0.0,0.0,0.0,0.0,0.0,0.0,0.0,0.0,-0.05347540072629471,-0.016839398027804812,0.018686798368450108,0.0,0.0,0.0,0.0,0.0,0.0,0.0,0.0,0.0,-0.02808528474073767,-0.024469113526801804,9.765091832305114,0.0,0.0,0.0,0.0,0.0,0.0,0.0,0.0,0.0
94.515,2795,94,514000000,IMU,-9.152953113980369e-07,4.535211462906793e-08,0.0005044853488671015,0.9999998727468383,0.0,0.0,0.0,0.0,0.0,0.0,0.0,0.0,0.0,0.028306389552399943,-0.0003460387263911695,-0.02028716754399411,0.0,0.0,0.0,0.0,0.0,0.0,0.0,0.0,0.0,0.013913978651879995,0.052275018939822504,9.76935028650427,0.0,0.0,0.0,0.0,0.0,0.0,0.0,0.0,0.0
94.525,2796,94,524000000,IMU,7.011956598887588e-07,-2.0338707529175812e-07,0.0005151864251878377,0.9999998672911983,0.0,0.0,0.0,0.0,0.0,0.0,0.0,0.0,0.0,-0.06411447818285337,0.04693261123832394,0.041601093654308224,0.0,0.0,0.0,0.0,0.0,0.0,0.0,0.0,0.0,0.063758879056251,0.06506127501021267,9.810064288626938,0.0,0.0,0.0,0.0,0.0,0.0,0.0,0.0,0.0
94.534,2797,94,534000000,IMU,-3.840098790267149e-11,-1.3908396427556497e-12,0.0005255640043651044,0.9999998618912291,0.0,0.0,0.0,0.0,0.0,0.0,0.0,0.0,0.0,-0.0037299736119873017,0.09898361346765827,-0.024851929094385328,0.0,0.0,0.0,0.0,0.0,0.0,0.0,0.0,0.0,0.001008043371702641,-0.014467545401126373,9.81067136086852,0.0,0.0,0.0,0.0,0.0,0.0,0.0,0.0,0.0
94.545,2798,94,544000000,IMU,-7.380862450827483e-07,4.594532831534529e-07,0.0005384853775540207,0.9999998550163608,0.0,0.0,0.0,0.0,0.0,0.0,0.0,0.0,0.0,-0.03334319985956731,-0.020765907360508543,0.0188933126658265,0.0,0.0,0.0,0.0,0.0,0.0,0.0,0.0,0.0,0.036590405259630525,-0.07929589983310516,9.811754084640741,0.0,0.0,0.0,0.0,0.0,0.0,0.0,0.0,0.0
94.555,2799,94,554000000,IMU,6.498702515668228e-07,1.6449472270078812e-07,0.0005550801087718458,0.9999998459427998,0.0,0.0,0.0,0.0,0.0,0.0,0.0,0.0,0.0,0.030122125642175458,-0.03218525031426549,0.006768478695878507,0.0,0.0,0.0,0.0,0.0,0.0,0.0,0.0,0.0,0.043225609857206665,0.09332484448694214,9.818341330353485,0.0,0.0,0.0,0.0,0.0,0.0,0.0,0.0,0.0
94.565,2800,94,564000000,IMU,2.055084722237006e-06,8.35739915210267e-08,0.0005776113720603428,0.9999998331804223,0.0,0.0,0.0,0.0,0.0,0.0,0.0,0.0,0.0,0.03537248471790306,-0.02154440299823243,0.04860525468627433,0.0,0.0,0.0,0.0,0.0,0.0,0.0,0.0,0.0,-0.01777914983250883,0.023739027008840702,9.7686708100259,0.0,0.0,0.0,0.0,0.0,0.0,0.0,0.0,0.0
94.575,2801,94,574000000,IMU,-9.929272710497014e-13,-1.7710928867301888e-12,0.0006081681196194272,0.9999998150657522,0.0,0.0,0.0,0.0,0.0,0.0,0.0,0.0,0.0,-0.05926727309359156,-0.017165818136577627,-0.049617309496001696,0.0,0.0,0.0,0.0,0.0,0.0,0.0,0.0,0.0,0.001398157031523281,-0.017062800056808644,9.889699021387164,0.0,0.0,0.0,0.0,0.0,0.0,0.0,0.0,0.0
94.585,2802,94,584000000,IMU,-3.56912069567511e-07,-7.04244444536314e-07,0.0006373748549156731,0.999999796876315,0.0,0.0,0.0,0.0,0.0,0.0,0.0,0.0,0.0,0.03535984761123258,0.033904097103665244,0.09084088944803158,0.0,0.0,0.0,0.0,0.0,0.0,0.0,0.0,0.0,0.08017036689116339,0.009195517912808308,9.796535321186951,0.0,0.0,0.0,0.0,0.0,0.0,0.0,0.0,0.0
94.595,2803,94,594000000,IMU,5.957455331568226e-07,-2.3471850401264207e-07,0.0006700589881868679,0.9999997755102461,0.0,0.0,0.0,0.0,0.0,0.0,0.0,0.0,0.0,-0.002770987121875649,0.023572618840483225,-0.0534675717671279,0.0,0.0,0.0,0.0,0.0,0.0,0.0,0.0,0.0,0.16901894026783795,0.1586496361254005,9.760669643446581,0.0,0.0,0.0,0.0,0.0,0.0,0.0,0.0,0.0
94.605,2804,94,604000000,IMU,1.5699960077555648e-06,1.739181729664387e-07,0.0007030420469642108,0.999999752864662,0.0,0.0,0.0,0.0,0.0,0.0,0.0,0.0,0.0,-0.04712003642914128,-0.002517953650533272,0.012438171594699707,0.0,0.0,0.0,0.0,0.0,0.0,0.0,0.0,0.0,0.04242911498065909,0.05202879383041516,9.778963134044103,0.0,0.0,0.0,0.0,0.0,0.0,0.0,0.0,0.0
94.615,2805,94,614000000,IMU,-2.9544461861660666e-11,3.8146621055253077e-08,0.0007470059482404297,0.999999720991017,0.0,0.0,0.0,0.0,0.0,0.0,0.0,0.0,0.0,0.030241138731192944,-0.02496456365656698,-0.019543029742227422,0.0,0.0,0.0,0.0,0.0,0.0,0.0,0.0,0.0,0.014331767730213427,-0.17018731034990717,9.758591256829352,0.0,0.0,0.0,0.0,0.0,0.0,0.0,0.0,0.0
94.625,2806,94,624000000,IMU,-1.4336453928988521e-06,-1.049767907616841e-06,0.0007925469144921968,0.9999996859330663,0.0,0.0,0.0,0.0,0.0,0.0,0.0,0.0,0.0,0.015028452379491766,0.018155496994906633,-0.020404856477560015,0.0,0.0,0.0,0.0,0.0,0.0,0.0,0.0,0.0,-0.06743564019763779,-0.04694029297029793,9.732789114260681,0.0,0.0,0.0,0.0,0.0,0.0,0.0,0.0,0.0
94.635,2807,94,634000000,IMU,1.230802962000221e-06,-6.14560420131344e-06,0.0008437165725603238,0.9999996440514676,0.0,0.0,0.0,0.0,0.0,0.0,0.0,0.0,0.0,0.0006803243874723714,-0.02627962513810137,0.0033514954607465064,0.0,0.0,0.0,0.0,0.0,0.0,0.0,0.0,0.0,0.07625940272038294,0.056114983649919806,9.88757120187869,0.0,0.0,0.0,0.0,0.0,0.0,0.0,0.0,0.0
94.645,2808,94,644000000,IMU,1.7489165904864471e-06,2.9725168804324922e-06,0.0009057118574276314,0.9999995898369843,0.0,0.0,0.0,0.0,0.0,0.0,0.0,0.0,0.0,-0.03159963010589105,0.057700496689981104,0.0716309997213532,0.0,0.0,0.0,0.0,0.0,0.0,0.0,0.0,0.0,-0.16609081666878567,-0.05931253332347067,9.732097230612524,0.0,0.0,0.0,0.0,0.0,0.0,0.0,0.0,0.0
94.655,2809,94,654000000,IMU,1.5062518391883851e-05,-1.2919045781261441e-05,0.0009757943635858891,0.999999523715676,0.0,0.0,0.0,0.0,0.0,0.0,0.0,0.0,0.0,0.036319930317362914,-0.023021666156522656,0.047122008486744034,0.0,0.0,0.0,0.0,0.0,0.0,0.0,0.0,0.0,0.07135808324095953,0.024408154297530016,9.941571038908076,0.0,0.0,0.0,0.0,0.0,0.0,0.0,0.0,0.0
94.665,2810,94,664000000,IMU,1.8166155337526367e-06,4.657517420904497e-06,0.001078711458520213,0.9999994181781292,0.0,0.0,0.0,0.0,0.0,0.0,0.0,0.0,0.0,-0.018860178836210658,-0.0077948443662845725,0.041990427619528564,0.0,0.0,0.0,0.0,0.0,0.0,0.0,0.0,0.0,-0.09792105810070455,-0.0653272578047698,9.78206016615627,0.0,0.0,0.0,0.0,0.0,0.0,0.0,0.0,0.0
94.675,2811,94,674000000,IMU,-5.151335948617728e-06,-2.8473817301242563e-05,0.0011804400942024577,0.9999993028617017,0.0,0.0,0.0,0.0,0.0,0.0,0.0,0.0,0.0,0.03995282793674848,-0.030929864045564227,0.0323151995152895,0.0,0.0,0.0,0.0,0.0,0.0,0.0,0.0,0.0,0.21691413691203196,0.06688418416640889,9.901582151718094,0.0,0.0,0.0,0.0,0.0,0.0,0.0,0.0,0.0
94.685,2812,94,684000000,IMU,1.463162245214064e-05,-1.0782567971319478e-05,0.0012950896501583487,0.9999991612058732,0.0,0.0,0.0,0.0,0.0,0.0,0.0,0.0,0.0,0.02075328415609288,0.016266293550176128,0.07478313586955287,0.0,0.0,0.0,0.0,0.0,0.0,0.0,0.0,0.0,0.03485417257163238,0.08252485266831763,9.723710484687487,0.0,0.0,0.0,0.0,0.0,0.0,0.0,0.0,0.0
94.695,2813,94,694000000,IMU,-3.141688329401288e-05,-8.15345049181059e-06,0.0014024541341670028,0.9999990160339671,0.0,0.0,0.0,0.0,0.0,0.0,0.0,0.0,0.0,0.0657414318975168,0.030211523235440588,-0.008244954275899781,0.0,0.0,0.0,0.0,0.0,0.0,0.0,0.0,0.0,0.04508240599522077,-0.10837006167020276,9.955440068144682,0.0,0.0,0.0,0.0,0.0,0.0,0.0,0.0,0.0
94.705,2814,94,704000000,IMU,-8.007734248795238e-06,-4.476345226360868e-05,0.001509956486249605,0.9999988589811086,0.0,0.0,0.0,0.0,0.0,0.0,0.0,0.0,0.0,-0.058863446852997256,-0.04010308429441266,0.02699643634114975,0.0,0.0,0.0,0.0,0.0,0.0,0.0,0.0,0.0,-0.06836294185226419,0.07941478201995052,9.697909597770186,0.0,0.0,0.0,0.0,0.0,0.0,0.0,0.0,0.0
94.715,2815,94,714000000,IMU,1.1343193306195506e-05,-5.4657568438221455e-08,0.0016412832536313302,0.9999986530293979,0.0,0.0,0.0,0.0,0.0,0.0,0.0,0.0,0.0,0.046098269537656285,0.09841707285555647,0.052887091996697805,0.0,0.0,0.0,0.0,0.0,0.0,0.0,0.0,0.0,-0.02497452230803779,0.057813428742457006,9.77525804750732,0.0,0.0,0.0,0.0,0.0,0.0,0.0,0.0,0.0
94.725,2816,94,724000000,IMU,-1.2853677006636882e-05,-1.2615708501460365e-05,0.001795890898338735,0.9999983872244536,0.0,0.0,0.0,0.0,0.0,0.0,0.0,0.0,0.0,-0.01487719775484448,-0.045444783624835464,-0.03392619606000086,0.0,0.0,0.0,0.0,0.0,0.0,0.0,0.0,0.0,0.04553565043586959,-0.29524664098340914,9.836839374181686,0.0,0.0,0.0,0.0,0.0,0.0,0.0,0.0,0.0
94.735,2817,94,734000000,IMU,4.1730743057200956e-05,-4.098450318077793e-05,0.0018955095242201034,0.9999982018096129,0.0,0.0,0.0,0.0,0.0,0.0,0.0,0.0,0.0,0.09107418268538806,0.008123763596818805,-0.021274220237352825,0.0,0.0,0.0,0.0,0.0,0.0,0.0,0.0,0.0,-0.04917938329133899,0.26327535891870907,9.848243643005873,0.0,0.0,0.0,0.0,0.0,0.0,0.0,0.0,0.0
94.745,2818,94,744000000,IMU,6.433556074126032e-05,-1.6880417213132146e-05,0.0020502306712676783,0.9999978960628775,0.0,0.0,0.0,0.0,0.0,0.0,0.0,0.0,0.0,0.005297093035078358,-0.05501683893337318,-0.025385190408365267,0.0,0.0,0.0,0.0,0.0,0.0,0.0,0.0,0.0,-0.08792986513531775,0.11488981866369055,9.640940828451287,0.0,0.0,0.0,0.0,0.0,0.0,0.0,0.0,0.0
94.754,2819,94,754000000,IMU,1.902411236506932e-05,1.3939793224523664e-05,0.0022265654659788248,0.9999975209219226,0.0,0.0,0.0,0.0,0.0,0.0,0.0,0.0,0.0,-0.0065874352153286655,0.013013283500728312,0.041537466336371606,0.0,0.0,0.0,0.0,0.0,0.0,0.0,0.0,0.0,-0.19953653502178315,-0.05190312864539929,9.75441932612322,0.0,0.0,0.0,0.0,0.0,0.0,0.0,0.0,0.0
94.765,2820,94,764000000,IMU,5.358820908896367e-06,-2.7738294323633053e-05,0.002373133860417965,0.9999971837148096,0.0,0.0,0.0,0.0,0.0,0.0,0.0,0.0,0.0,-0.07550373668241643,-0.041745632189033904,0.02273214185138224,0.0,0.0,0.0,0.0,0.0,0.0,0.0,0.0,0.0,0.2413028316211907,-0.02643865295304575,9.912599724477127,0.0,0.0,0.0,0.0,0.0,0.0,0.0,0.0,0.0
94.775,2821,94,774000000,IMU,5.20581215348338e-05,-7.601286573232784e-06,0.0025082856077957667,0.9999968528627889,0.0,0.0,0.0,0.0,0.0,0.0,0.0,0.0,0.0,-0.05343317464796975,0.037799040220939675,0.050619746326867124,0.0,0.0,0.0,0.0,0.0,0.0,0.0,0.0,0.0,-0.19922687711568116,0.11656945004501018,9.756080152771089,0.0,0.0,0.0,0.0,0.0,0.0,0.0,0.0,0.0
94.785,2822,94,784000000,IMU,3.196226033325112e-05,3.0494858085252913e-06,0.0026791573325234386,0.9999964105361091,0.0,0.0,0.0,0.0,0.0,0.0,0.0,0.0,0.0,-0.026627161406277813,0.020806034080607085,-0.01029001179028561,0.0,0.0,0.0,0.0,0.0,0.0,0.0,0.0,0.0,-0.060551665153221294,-0.17172629626663594,9.663478417658892,0.0,0.0,0.0,0.0,0.0,0.0,0.0,0.0,0.0
94.795,2823,94,794000000,IMU,2.1398454966401237e-06,5.755018152982031e-06,0.002888512943563863,0.9999958282189361,0.0,0.0,0.0,0.0,0.0,0.0,0.0,0.0,0.0,-0.04527711769326517,-0.005840471456085146,0.01834537330269084,0.0,0.0,0.0,0.0,0.0,0.0,0.0,0.0,0.0,-0.01896881536970177,0.14016559179673,9.867803751627289,0.0,0.0,0.0,0.0,0.0,0.0,0.0,0.0,0.0
94.805,2824,94,804000000,IMU,1.0933096449427267e-06,-9.7440425450702e-06,0.0030776464452870497,0.9999952639868932,0.0,0.0,0.0,0.0,0.0,0.0,0.0,0.0,0.0,-0.03338127298745405,-0.0009980874123929606,0.021520937399985285,0.0,0.0,0.0,0.0,0.0,0.0,0.0,0.0,0.0,-0.058262951073324964,0.013218043968321259,9.831154115540157,0.0,0.0,0.0,0.0,0.0,0.0,0.0,0.0,0.0
94.815,2825,94,814000000,IMU,-6.36741993396099e-06,-1.972687360913648e-06,0.003278907963775909,0.999994624344616,0.0,0.0,0.0,0.0,0.0,0.0,0.0,0.0,0.0,-0.0030452311889683902,-0.002354764116243635,-0.03487137365442165,0.0,0.0,0.0,0.0,0.0,0.0,0.0,0.0,0.0,0.1207473430288924,-0.17230829126868952,9.814040994568415,0.0,0.0,0.0,0.0,0.0,0.0,0.0,0.0,0.0
94.825,2826,94,824000000,IMU,3.469149710551355e-06,-1.6938554457372806e-05,0.0034748514488821694,0.9999939625360039,0.0,0.0,0.0,0.0,0.0,0.0,0.0,0.0,0.0,0.04497568127925544,-0.032681004548058695,0.013992802479457285,0.0,0.0,0.0,0.0,0.0,0.0,0.0,0.0,0.0,-0.032121479159228666,0.11513474393761146,9.8340581127649,0.0,0.0,0.0,0.0,0.0,0.0,0.0,0.0,0.0
94.835,2827,94,834000000,IMU,3.2891716458870364e-06,6.7692228558959795e-06,0.003693547666533031,0.9999931788012326,0.0,0.0,0.0,0.0,0.0,0.0,0.0,0.0,0.0,-0.0268036080021321,0.016771714658504376,0.05095561916451118,0.0,0.0,0.0,0.0,0.0,0.0,0.0,0.0,0.0,-0.11707708123079621,-0.05255894068655742,9.750280891712006,0.0,0.0,0.0,0.0,0.0,0.0,0.0,0.0,0.0
94.847,2828,94,844000000,IMU,-1.1604749674511907e-05,-2.303778557623137e-05,0.0038894378921313765,0.9999924357751281,0.0,0.0,0.0,0.0,0.0,0.0,0.0,0.0,0.0,0.03235626351347015,0.023423876228320917,0.07718067886351351,0.0,0.0,0.0,0.0,0.0,0.0,0.0,0.0,0.0,0.1601008260077067,0.021362948144860575,9.785771248431278,0.0,0.0,0.0,0.0,0.0,0.0,0.0,0.0,0.0
94.855,2829,94,854000000,IMU,9.964001272253592e-06,-4.3779827522600224e-05,0.004110136138520439,0.9999915523468028,0.0,0.0,0.0,0.0,0.0,0.0,0.0,0.0,0.0,-0.029618062802147224,0.04515103880463456,0.030210684831052943,0.0,0.0,0.0,0.0,0.0,0.0,0.0,0.0,0.0,-0.008992258717524161,0.056422537647227815,9.703017537031249,0.0,0.0,0.0,0.0,0.0,0.0,0.0,0.0,0.0
94.865,2830,94,864000000,IMU,9.914892353599471e-06,-2.6175538230276428e-05,0.004346561323605698,0.9999905532659776,0.0,0.0,0.0,0.0,0.0,0.0,0.0,0.0,0.0,0.011283298627513932,-0.04608449100288793,0.08460639250454141,0.0,0.0,0.0,0.0,0.0,0.0,0.0,0.0,0.0,-0.023103548618699683,0.020560258611010664,9.67386383281396,0.0,0.0,0.0,0.0,0.0,0.0,0.0,0.0,0.0
94.875,2831,94,874000000,IMU,-3.767297943634412e-07,3.5083194389377188e-06,0.004598396205496714,0.9999894273140527,0.0,0.0,0.0,0.0,0.0,0.0,0.0,0.0,0.0,0.035551147361266744,0.024271683174604403,0.06380754844553474,0.0,0.0,0.0,0.0,0.0,0.0,0.0,0.0,0.0,0.013189932988030263,0.11848131347264376,9.84736910355201,0.0,0.0,0.0,0.0,0.0,0.0,0.0,0.0,0.0
94.885,2832,94,884000000,IMU,2.0840597403921189e-07,-1.450270697959314e-05,0.0048328472324842865,0.9999883216204356,0.0,0.0,0.0,0.0,0.0,0.0,0.0,0.0,0.0,-0.02421925101390519,-0.017942559086921956,0.08099272332027349,0.0,0.0,0.0,0.0,0.0,0.0,0.0,0.0,0.0,-0.13773250185129143,-0.13795750779291907,9.91697076262069,0.0,0.0,0.0,0.0,0.0,0.0,0.0,0.0,0.0
94.894,2833,94,894000000,IMU,2.6357183472468006e-06,-2.3154969235368012e-07,0.005094634692270292,0.9999870222609649,0.0,0.0,0.0,0.0,0.0,0.0,0.0,0.0,0.0,0.015708597389915948,0.004873966458568309,0.05419120505161074,0.0,0.0,0.0,0.0,0.0,0.0,0.0,0.0,0.0,-0.08188335425371902,0.13374524218116574,9.714971205010649,0.0,0.0,0.0,0.0,0.0,0.0,0.0,0.0,0.0
94.905,2834,94,904000000,IMU,-1.70110659638893e-05,-1.8270495755368819e-06,0.005372039437719861,0.9999855703456751,0.0,0.0,0.0,0.0,0.0,0.0,0.0,0.0,0.0,-0.05374891462957172,0.049814766750934686,0.07452732178433585,0.0,0.0,0.0,0.0,0.0,0.0,0.0,0.0,0.0,-0.07989464004519904,-0.23537397683106503,9.828179533148981,0.0,0.0,0.0,0.0,0.0,0.0,0.0,0.0,0.0
94.915,2835,94,914000000,IMU,3.1132580073257453e-06,-1.292029417706929e-05,0.0056203291077425435,0.9999842057373177,0.0,0.0,0.0,0.0,0.0,0.0,0.0,0.0,0.0,0.008425367990229308,0.07928507450391296,0.0582620791873152,0.0,0.0,0.0,0.0,0.0,0.0,0.0,0.0,0.0,-0.002297168984570011,-0.020042327733462054,9.680465149952783,0.0,0.0,0.0,0.0,0.0,0.0,0.0,0.0,0.0
94.924,2836,94,924000000,IMU,5.880703496702159e-06,1.7045249497163062e-05,0.005889619376476375,0.9999826558788294,0.0,0.0,0.0,0.0,0.0,0.0,0.0,0.0,0.0,0.05831066177834721,-0.05296094893823826,0.05854877086773212,0.0,0.0,0.0,0.0,0.0,0.0,0.0,0.0,0.0,-0.15231438640817263,-0.005039265891043733,9.748304816885357,0.0,0.0,0.0,0.0,0.0,0.0,0.0,0.0,0.0
94.935,2837,94,934000000,IMU,-1.5122486417953796e-05,-3.849966863911727e-07,0.00617397464815775,0.999980940722475,0.0,0.0,0.0,0.0,0.0,0.0,0.0,0.0,0.0,0.00866953962893523,-0.008253846739823488,0.061527781256085816,0.0,0.0,0.0,0.0,0.0,0.0,0.0,0.0,0.0,0.036460570324842866,-0.04672319708045498,9.730089219474754,0.0,0.0,0.0,0.0,0.0,0.0,0.0,0.0,0.0
94.945,2838,94,944000000,IMU,4.490926354513311e-06,-1.3458213787235928e-05,0.006484130932271838,0.9999789777014121,0.0,0.0,0.0,0.0,0.0,0.0,0.0,0.0,0.0,0.04050836294476317,0.012080113567585291,0.0626009969707525,0.0,0.0,0.0,0.0,0.0,0.0,0.0,0.0,0.0,0.008812689900262977,0.19692419226247493,9.854538952406232,0.0,0.0,0.0,0.0,0.0,0.0,0.0,0.0,0.0
94.955,2839,94,954000000,IMU,1.1228697222189397e-05,7.320393941131854e-06,0.006752744935609588,0.9999771998681584,0.0,0.0,0.0,0.0,0.0,0.0,0.0,0.0,0.0,-0.010202175124431615,0.03686377790273009,0.004283631506180663,0.0,0.0,0.0,0.0,0.0,0.0,0.0,0.0,0.0,-0.02607929292430872,-0.05061350055125125,9.703375193956427,0.0,0.0,0.0,0.0,0.0,0.0,0.0,0.0,0.0
94.965,2840,94,964000000,IMU,-1.4688092532635725e-06,1.1138462613904008e-05,0.00706222659503511,0.9999750621036995,0.0,0.0,0.0,0.0,0.0,0.0,0.0,0.0,0.0,-0.03614387909789565,-0.0015973667354142306,0.1317622605440646,0.0,0.0,0.0,0.0,0.0,0.0,0.0,0.0,0.0,0.020454225277986574,-0.13905356132689897,9.71905639813193,0.0,0.0,0.0,0.0,0.0,0.0,0.0,0.0,0.0
94.974,2841,94,974000000,IMU,4.4606903296968806e-06,-4.4019932762592387e-07,0.007382808498274776,0.9999727466879217,0.0,0.0,0.0,0.0,0.0,0.0,0.0,0.0,0.0,-0.06145952818674311,0.0469309847305223,0.08080286799103806,0.0,0.0,0.0,0.0,0.0,0.0,0.0,0.0,0.0,-0.06915439537911706,0.020307575023889718,9.86046402444366,0.0,0.0,0.0,0.0,0.0,0.0,0.0,0.0,0.0
94.985,2842,94,984000000,IMU,6.577726938198282e-06,8.823394343429112e-07,0.007705044329039398,0.999970315683342,0.0,0.0,0.0,0.0,0.0,0.0,0.0,0.0,0.0,-0.05256705267691148,0.020111427606119125,0.06749814517212821,0.0,0.0,0.0,0.0,0.0,0.0,0.0,0.0,0.0,-0.022865148887087447,0.06440378457899729,9.752371467128473,0.0,0.0,0.0,0.0,0.0,0.0,0.0,0.0,0.0
94.995,2843,94,994000000,IMU,-7.408090360476074e-07,-1.0545176139033779e-06,0.008038031090025695,0.9999676945054451,0.0,0.0,0.0,0.0,0.0,0.0,0.0,0.0,0.0,-0.017791412439882193,0.05020323678349056,0.07733541644348911,0.0,0.0,0.0,0.0,0.0,0.0,0.0,0.0,0.0,0.009913223846108227,0.07550603716835608,9.838720580489511,0.0,0.0,0.0,0.0,0.0,0.0,0.0,0.0,0.0
95.004,2844,95,4000000,IMU,1.1000361112931067e-06,-6.248090251721894e-07,0.008366089955130655,0.9999650036562591,0.0,0.0,0.0,0.0,0.0,0.0,0.0,0.0,0.0,-0.027596001547595624,-0.004498381082697171,0.025890298488310953,0.0,0.0,0.0,0.0,0.0,0.0,0.0,0.0,0.0,0.000662632166411492,0.041285674114302465,9.712733742129128,0.0,0.0,0.0,0.0,0.0,0.0,0.0,0.0,0.0
95.015,2845,95,14000000,IMU,4.0786760943062517e-07,-2.06682298422288e-06,0.008707687242376246,0.9999620873705418,0.0,0.0,0.0,0.0,0.0,0.0,0.0,0.0,0.0,-0.040853699974547,0.0537250875196969,0.028926971434651838,0.0,0.0,0.0,0.0,0.0,0.0,0.0,0.0,0.0,-0.001600009186004163,-0.010520753914368592,9.82857533237411,0.0,0.0,0.0,0.0,0.0,0.0,0.0,0.0,0.0
95.025,2846,95,24000000,IMU,4.511795097796076e-06,3.0073872095699793e-07,0.009058477566914002,0.9999589711401778,0.0,0.0,0.0,0.0,0.0,0.0,0.0,0.0,0.0,-0.034698886654094326,0.014399227433812332,-0.03817631458971882,0.0,0.0,0.0,0.0,0.0,0.0,0.0,0.0,0.0,0.0533077097599374,0.06273581428494794,9.709136735848148,0.0,0.0,0.0,0.0,0.0,0.0,0.0,0.0,0.0
95.035,2847,95,34000000,IMU,1.651261788255952e-05,1.5007688131442042e-07,0.00941953505378282,0.9999556350592168,0.0,0.0,0.0,0.0,0.0,0.0,0.0,0.0,0.0,-0.003431406656542121,-0.006857778539088693,0.03917996243598835,0.0,0.0,0.0,0.0,0.0,0.0,0.0,0.0,0.0,-0.07269156600287885,-0.025387034332019404,9.83024105537379,0.0,0.0,0.0,0.0,0.0,0.0,0.0,0.0,0.0
95.045,2848,95,44000000,IMU,3.779781554131408e-05,-2.224853858999717e-06,0.00979068479262171,0.9999520693801613,0.0,0.0,0.0,0.0,0.0,0.0,0.0,0.0,0.0,0.11488095938231317,0.022776640688416824,0.14393754368675876,0.0,0.0,0.0,0.0,0.0,0.0,0.0,0.0,0.0,-0.007929155383700887,-0.09798269228781893,9.72622847786014,0.0,0.0,0.0,0.0,0.0,0.0,0.0,0.0,0.0
95.055,2849,95,54000000,IMU,5.39705539019088e-05,-1.2040553570652694e-05,0.010170239505182132,0.9999482802478394,0.0,0.0,0.0,0.0,0.0,0.0,0.0,0.0,0.0,-0.023157503139116895,0.043346530502073384,0.10676625892118259,0.0,0.0,0.0,0.0,0.0,0.0,0.0,0.0,0.0,-0.029073031651766026,0.009471906462032316,9.872137359673722,0.0,0.0,0.0,0.0,0.0,0.0,0.0,0.0,0.0
95.065,2850,95,64000000,IMU,5.110655419878775e-05,-2.4385925851311742e-05,0.010552414915248673,0.9999443201163268,0.0,0.0,0.0,0.0,0.0,0.0,0.0,0.0,0.0,0.04369787872816043,-0.0013183135734760561,0.061193782497992164,0.0,0.0,0.0,0.0,0.0,0.0,0.0,0.0,0.0,0.07170047381171686,-0.006351749385886583,9.73359986583571,0.0,0.0,0.0,0.0,0.0,0.0,0.0,0.0,0.0
95.074,2851,95,74000000,IMU,3.2014777952755806e-05,-3.134444683938294e-05,0.01093315743775436,0.9999402302442987,0.0,0.0,0.0,0.0,0.0,0.0,0.0,0.0,0.0,-0.01193287889934497,-0.02678330427473663,0.049379571674020226,0.0,0.0,0.0,0.0,0.0,0.0,0.0,0.0,0.0,0.038701030832574694,-0.0688461079621686,9.860890966240241,0.0,0.0,0.0,0.0,0.0,0.0,0.0,0.0,0.0
95.085,2852,95,84000000,IMU,1.41502730165337e-05,-3.107364933776338e-05,0.011352684050587964,0.999935555622984,0.0,0.0,0.0,0.0,0.0,0.0,0.0,0.0,0.0,-0.001721782122324538,0.026122034142677147,0.12760585316144302,0.0,0.0,0.0,0.0,0.0,0.0,0.0,0.0,0.0,-0.036034734146290735,-0.034015846427938604,9.900869746645336,0.0,0.0,0.0,0.0,0.0,0.0,0.0,0.0,0.0
95.095,2853,95,94000000,IMU,1.841700261203903e-05,-3.114997388845418e-05,0.011701897139998934,0.9999315298028252,0.0,0.0,0.0,0.0,0.0,0.0,0.0,0.0,0.0,-0.016123265771916948,0.028876507597449967,0.07962519576649776,0.0,0.0,0.0,0.0,0.0,0.0,0.0,0.0,0.0,-0.0050443848423429695,-0.057562143926204054,9.841930658098033,0.0,0.0,0.0,0.0,0.0,0.0,0.0,0.0,0.0
95.105,2854,95,104000000,IMU,4.3979405902389195e-05,-3.832784470543397e-05,0.012099320738706482,0.9999267988380202,0.0,0.0,0.0,0.0,0.0,0.0,0.0,0.0,0.0,0.012980675075191482,-0.05719126568410145,0.05446805263447245,0.0,0.0,0.0,0.0,0.0,0.0,0.0,0.0,0.0,-0.02281304666516814,0.05022863263062381,9.778902833825548,0.0,0.0,0.0,0.0,0.0,0.0,0.0,0.0,0.0
95.115,2855,95,114000000,IMU,7.307320941667238e-05,-5.406473391046712e-05,0.012504845686191039,0.9999218072287829,0.0,0.0,0.0,0.0,0.0,0.0,0.0,0.0,0.0,-0.014487778047195858,0.028056322568224587,0.0784347072017596,0.0,0.0,0.0,0.0,0.0,0.0,0.0,0.0,0.0,-0.015952728966681314,-0.011380035216141934,9.8493988567901,0.0,0.0,0.0,0.0,0.0,0.0,0.0,0.0,0.0
95.125,2856,95,124000000,IMU,8.822983969726887e-05,-7.167278274166658e-05,0.012913331313703095,0.9999166129997491,0.0,0.0,0.0,0.0,0.0,0.0,0.0,0.0,0.0,-0.009866932067055401,0.010028818354527364,0.0983333180170897,0.0,0.0,0.0,0.0,0.0,0.0,0.0,0.0,0.0,0.005643515054152605,-0.009473868655295831,9.73875048719982,0.0,0.0,0.0,0.0,0.0,0.0,0.0,0.0,0.0
95.135,2857,95,134000000,IMU,8.265729470541952e-05,-8.242975629569987e-05,0.013319700088539395,0.9999112820458916,0.0,0.0,0.0,0.0,0.0,0.0,0.0,0.0,0.0,0.05372193663447561,0.023614203847191702,0.07976788312856938,0.0,0.0,0.0,0.0,0.0,0.0,0.0,0.0,0.0,0.026546528716205876,0.08899579710079344,9.871597633953899,0.0,0.0,0.0,0.0,0.0,0.0,0.0,0.0,0.0
95.145,2858,95,144000000,IMU,6.540551015602345e-05,-8.388202751944681e-05,0.01372242865503197,0.9999058373855674,0.0,0.0,0.0,0.0,0.0,0.0,0.0,0.0,0.0,-0.022834618819429494,-0.005347643630360948,0.10761834873039491,0.0,0.0,0.0,0.0,0.0,0.0,0.0,0.0,0.0,-0.004108199963895974,0.03140982898971692,9.79170763475395,0.0,0.0,0.0,0.0,0.0,0.0,0.0,0.0,0.0
95.155,2859,95,154000000,IMU,5.1464729294179816e-05,-7.98246101712079e-05,0.01412430709393285,0.9999002424884842,0.0,0.0,0.0,0.0,0.0,0.0,0.0,0.0,0.0,-0.017731810168432872,0.008400151659347287,0.07441481771350664,0.0,0.0,0.0,0.0,0.0,0.0,0.0,0.0,0.0,0.005275589436302209,-0.07360011008485706,9.879487063728957,0.0,0.0,0.0,0.0,0.0,0.0,0.0,0.0,0.0
95.165,2860,95,164000000,IMU,5.517093427704199e-05,-7.984069204499654e-05,0.014530945578842531,0.9998944155270678,0.0,0.0,0.0,0.0,0.0,0.0,0.0,0.0,0.0,0.05154549536613788,-0.03025151093453763,0.1476094508741161,0.0,0.0,0.0,0.0,0.0,0.0,0.0,0.0,0.0,0.12600205181566318,-0.09317806988197015,9.917003416200894,0.0,0.0,0.0,0.0,0.0,0.0,0.0,0.0,0.0
95.175,2861,95,174000000,IMU,7.690550828023955e-05,-9.158090831546879e-05,0.014946113504386347,0.9998882934556209,0.0,0.0,0.0,0.0,0.0,0.0,0.0,0.0,0.0,-0.05199687505270119,-0.024112028045434206,0.12159077053717547,0.0,0.0,0.0,0.0,0.0,0.0,0.0,0.0,0.0,0.007895329796739098,-0.014621510785417692,9.972080991687733,0.0,0.0,0.0,0.0,0.0,0.0,0.0,0.0,0.0
95.185,2862,95,184000000,IMU,0.00010243120435456427,-0.00011325532088439787,0.015369019287077769,0.9998818779872122,0.0,0.0,0.0,0.0,0.0,0.0,0.0,0.0,0.0,-0.041221470757053,-0.03736609557831822,0.05050310956562607,0.0,0.0,0.0,0.0,0.0,0.0,0.0,0.0,0.0,0.037564068150583746,0.01341190901107242,9.840492900061236,0.0,0.0,0.0,0.0,0.0,0.0,0.0,0.0,0.0
95.195,2863,95,194000000,IMU,0.00011559301953962186,-0.00013414675123848125,0.015795090291179478,0.9998752340995334,0.0,0.0,0.0,0.0,0.0,0.0,0.0,0.0,0.0,-0.02756996459663103,0.0017346490072419974,0.030956887181339023,0.0,0.0,0.0,0.0,0.0,0.0,0.0,0.0,0.0,0.10884340544877952,-0.032586515484939425,9.930592679629335,0.0,0.0,0.0,0.0,0.0,0.0,0.0,0.0,0.0
95.205,2864,95,204000000,IMU,0.00011040541438401191,-0.00014372241847403978,0.01621971682854521,0.9998684353156233,0.0,0.0,0.0,0.0,0.0,0.0,0.0,0.0,0.0,-0.0696222632927212,0.013591088444702847,0.10502526773380308,0.0,0.0,0.0,0.0,0.0,0.0,0.0,0.0,0.0,-0.03840812251782563,-0.07340342281694845,9.824239757383085,0.0,0.0,0.0,0.0,0.0,0.0,0.0,0.0,0.0
95.215,2865,95,214000000,IMU,9.430688372193734e-05,-0.00014078467929763653,0.016641284245974265,0.9998615098825089,0.0,0.0,0.0,0.0,0.0,0.0,0.0,0.0,0.0,-0.00793881271625335,-0.0015788954979472903,0.05213744780107713,0.0,0.0,0.0,0.0,0.0,0.0,0.0,0.0,0.0,-0.012570676365239526,0.05117782704032772,9.899860033503876,0.0,0.0,0.0,0.0,0.0,0.0,0.0,0.0,0.0
95.225,2866,95,224000000,IMU,8.12545648872508e-05,-0.00013192339923988265,0.017104168882904263,0.9998537009986699,0.0,0.0,0.0,0.0,0.0,0.0,0.0,0.0,0.0,-0.007233059545559587,0.056257688325907884,0.056948104096750204,0.0,0.0,0.0,0.0,0.0,0.0,0.0,0.0,0.0,0.006515000181607447,-0.05968566634638267,9.889368004795529,0.0,0.0,0.0,0.0,0.0,0.0,0.0,0.0,0.0
95.235,2867,95,234000000,IMU,8.503200482514547e-05,-0.0001326827980732598,0.017486689681157887,0.9998470837327217,0.0,0.0,0.0,0.0,0.0,0.0,0.0,0.0,0.0,0.01614638682287795,0.022442360390234086,0.0913399394526711,0.0,0.0,0.0,0.0,0.0,0.0,0.0,0.0,0.0,-0.009855045486331695,0.05558355992971459,9.865496828779687,0.0,0.0,0.0,0.0,0.0,0.0,0.0,0.0,0.0
95.245,2868,95,244000000,IMU,0.00010300657607591036,-0.0001481754639710244,0.017918790320939754,0.9998394293020814,0.0,0.0,0.0,0.0,0.0,0.0,0.0,0.0,0.0,-0.005299945186154449,0.029322308649567367,0.08340185098548032,0.0,0.0,0.0,0.0,0.0,0.0,0.0,0.0,0.0,0.017154117021439375,-0.060811457216269946,9.909230835592654,0.0,0.0,0.0,0.0,0.0,0.0,0.0,0.0,0.0
95.255,2869,95,254000000,IMU,0.00012424780225230868,-0.00017512686071112868,0.01835786518114373,0.9998314571361802,0.0,0.0,0.0,0.0,0.0,0.0,0.0,0.0,0.0,-0.012497474454429756,-0.017407831634942014,0.033776637857649255,0.0,0.0,0.0,0.0,0.0,0.0,0.0,0.0,0.0,0.04434308052517486,-0.0102608316895562,9.952905834401962,0.0,0.0,0.0,0.0,0.0,0.0,0.0,0.0,0.0
95.265,2870,95,264000000,IMU,0.00013386920522930835,-0.00019849444178367205,0.018800305803781066,0.9998232299665161,0.0,0.0,0.0,0.0,0.0,0.0,0.0,0.0,0.0,0.07955960688733131,-0.018715685940075243,0.09090231776901286,0.0,0.0,0.0,0.0,0.0,0.0,0.0,0.0,0.0,0.06480716119627299,0.0605770884466694,9.861362821846463,0.0,0.0,0.0,0.0,0.0,0.0,0.0,0.0,0.0
95.275,2871,95,274000000,IMU,0.00012617829182147078,-0.0002055822353849843,0.0192426282966966,0.9998148143887539,0.0,0.0,0.0,0.0,0.0,0.0,0.0,0.0,0.0,0.004702077075644125,0.006754125668257345,0.11054627167771311,0.0,0.0,0.0,0.0,0.0,0.0,0.0,0.0,0.0,0.05183387619702603,0.03503995474944527,9.882105747496173,0.0,0.0,0.0,0.0,0.0,0.0,0.0,0.0,0.0
95.284,2872,95,284000000,IMU,0.00010972642213939173,-0.00019619103169145701,0.01968293529051537,0.9998062469936567,0.0,0.0,0.0,0.0,0.0,0.0,0.0,0.0,0.0,-0.027775790872717164,-0.013907429470827438,0.1183112378053198,0.0,0.0,0.0,0.0,0.0,0.0,0.0,0.0,0.0,-0.010097525034902065,0.03313080252287316,9.943829660743928,0.0,0.0,0.0,0.0,0.0,0.0,0.0,0.0,0.0
95.294,2873,95,294000000,IMU,0.00010052449906207606,-0.0001846503905113535,0.02012284566617026,0.9997974929361215,0.0,0.0,0.0,0.0,0.0,0.0,0.0,0.0,0.0,0.024573413024088647,0.026176586589935325,0.134316675640459,0.0,0.0,0.0,0.0,0.0,0.0,0.0,0.0,0.0,0.06672923830436628,-0.01708345427552183,9.89853880370531,0.0,0.0,0.0,0.0,0.0,0.0,0.0,0.0,0.0
95.305,2874,95,304000000,IMU,0.00010572297859590548,-0.00018588782413714766,0.02056566213333346,0.9997884815346626,0.0,0.0,0.0,0.0,0.0,0.0,0.0,0.0,0.0,-0.027515421899102947,0.006256236405380115,0.10163163405237494,0.0,0.0,0.0,0.0,0.0,0.0,0.0,0.0,0.0,-0.010703962876189306,0.0348507882049251,9.974791555535639,0.0,0.0,0.0,0.0,0.0,0.0,0.0,0.0,0.0
95.315,2875,95,314000000,IMU,0.00012297222005188557,-0.00020765561823633027,0.02101435518897715,0.9997791449280031,0.0,0.0,0.0,0.0,0.0,0.0,0.0,0.0,0.0,0.03849069372062251,-0.01230559879189153,0.07582872957439668,0.0,0.0,0.0,0.0,0.0,0.0,0.0,0.0,0.0,0.02446570703595796,-0.02250098633906529,9.968065806742576,0.0,0.0,0.0,0.0,0.0,0.0,0.0,0.0,0.0
95.325,2876,95,324000000,IMU,0.0001390030381544496,-0.00023962309486695187,0.021468845493438964,0.999769479396179,0.0,0.0,0.0,0.0,0.0,0.0,0.0,0.0,0.0,0.07170802533377509,-0.002928559511547555,0.09904443678217006,0.0,0.0,0.0,0.0,0.0,0.0,0.0,0.0,0.0,0.03938203064463016,-0.10707827269307789,9.81140406693215,0.0,0.0,0.0,0.0,0.0,0.0,0.0,0.0,0.0
95.335,2877,95,334000000,IMU,0.00014326460176913785,-0.00026465703036341085,0.021927416645851613,0.9997595200002596,0.0,0.0,0.0,0.0,0.0,0.0,0.0,0.0,0.0,0.034570503005055916,0.03726814776719276,0.0905557043855345,0.0,0.0,0.0,0.0,0.0,0.0,0.0,0.0,0.0,0.12915552521190557,0.004529836637514899,9.901937693017336,0.0,0.0,0.0,0.0,0.0,0.0,0.0,0.0,0.0
95.345,2878,95,344000000,IMU,0.0001349636779791007,-0.00026918578898700346,0.02238706981380283,0.9997493327974611,0.0,0.0,0.0,0.0,0.0,0.0,0.0,0.0,0.0,0.002186552219461108,0.014279714824354419,0.06299171518754434,0.0,0.0,0.0,0.0,0.0,0.0,0.0,0.0,0.0,-0.006236694150444047,0.06608854956134887,9.947093008755024,0.0,0.0,0.0,0.0,0.0,0.0,0.0,0.0,0.0
95.355,2879,95,354000000,IMU,0.00012375050788642438,-0.00025683330309011045,0.02284616015160282,0.999738951771308,0.0,0.0,0.0,0.0,0.0,0.0,0.0,0.0,0.0,0.04022119714438548,0.0021569593054641145,0.06396753042826894,0.0,0.0,0.0,0.0,0.0,0.0,0.0,0.0,0.0,-0.004175341767501428,-0.039766657349585996,9.914414620949145,0.0,0.0,0.0,0.0,0.0,0.0,0.0,0.0,0.0
95.365,2880,95,364000000,IMU,0.00011937944285572466,-0.00024382838618004562,0.023304804212615562,0.9997283693068226,0.0,0.0,0.0,0.0,0.0,0.0,0.0,0.0,0.0,0.03394665230684458,0.05046267833361947,0.04577664305264103,0.0,0.0,0.0,0.0,0.0,0.0,0.0,0.0,0.0,-0.06801489922543213,-0.08148843888966122,9.861954710909677,0.0,0.0,0.0,0.0,0.0,0.0,0.0,0.0,0.0
95.375,2881,95,374000000,IMU,0.00012630522516374489,-0.00024727781474164867,0.023764920631534098,0.9997175358310214,0.0,0.0,0.0,0.0,0.0,0.0,0.0,0.0,0.0,0.027050388091559078,-0.04833619202843758,0.08000161683493295,0.0,0.0,0.0,0.0,0.0,0.0,0.0,0.0,0.0,0.06629164604504673,-0.02195074104107946,9.994838681235517,0.0,0.0,0.0,0.0,0.0,0.0,0.0,0.0,0.0
95.385,2882,95,384000000,IMU,0.0001398951584350713,-0.0002740369469916101,0.024229114083414445,0.9997063845769063,0.0,0.0,0.0,0.0,0.0,0.0,0.0,0.0,0.0,-0.0037420449315390394,0.05627961305663154,0.14853129092260753,0.0,0.0,0.0,0.0,0.0,0.0,0.0,0.0,0.0,0.0472119282752551,0.06934036569683744,10.005420483755241,0.0,0.0,0.0,0.0,0.0,0.0,0.0,0.0,0.0
95.395,2883,95,394000000,IMU,0.00014933932647156472,-0.00030983274882339653,0.024697979323931543,0.9996948992161299,0.0,0.0,0.0,0.0,0.0,0.0,0.0,0.0,0.0,-0.0356428654089505,-0.07570703203023905,0.11157074351613719,0.0,0.0,0.0,0.0,0.0,0.0,0.0,0.0,0.0,0.06633664447412371,0.020230012815482416,9.89724750912569,0.0,0.0,0.0,0.0,0.0,0.0,0.0,0.0,0.0
95.405,2884,95,404000000,IMU,0.00014918155632178098,-0.00033399503455739564,0.025171266764009867,0.9996830865437684,0.0,0.0,0.0,0.0,0.0,0.0,0.0,0.0,0.0,-0.0017245556550807496,-0.016561581498415533,0.12205034401773189,0.0,0.0,0.0,0.0,0.0,0.0,0.0,0.0,0.0,-0.02096097556821727,0.01613504048635314,9.872002634659038,0.0,0.0,0.0,0.0,0.0,0.0,0.0,0.0,0.0
95.414,2885,95,414000000,IMU,0.0001417962347262712,-0.00033420999910479426,0.025648010961606404,0.9996709697351512,0.0,0.0,0.0,0.0,0.0,0.0,0.0,0.0,0.0,-0.02875590745615277,-0.07317086265026004,0.12154486949892603,0.0,0.0,0.0,0.0,0.0,0.0,0.0,0.0,0.0,0.006713985308399959,-0.05682650630971405,9.902409691343442,0.0,0.0,0.0,0.0,0.0,0.0,0.0,0.0,0.0
95.424,2886,95,424000000,IMU,0.00013509850915276305,-0.0003173096821127441,0.026125655092173416,0.9996586073300042,0.0,0.0,0.0,0.0,0.0,0.0,0.0,0.0,0.0,0.021298925829938604,-0.03573894446632972,0.10440095235672917,0.0,0.0,0.0,0.0,0.0,0.0,0.0,0.0,0.0,-0.12203743774539609,0.02529948412184995,9.809089176116995,0.0,0.0,0.0,0.0,0.0,0.0,0.0,0.0,0.0
95.434,2887,95,434000000,IMU,0.00013599899200507687,-0.0003022485171000789,0.02660294476375336,0.9996460240905302,0.0,0.0,0.0,0.0,0.0,0.0,0.0,0.0,0.0,0.02868941301161971,-0.07296685245986596,0.11607730054033041,0.0,0.0,0.0,0.0,0.0,0.0,0.0,0.0,0.0,0.029408199204549974,0.07519228392130504,9.878038752608177,0.0,0.0,0.0,0.0,0.0,0.0,0.0,0.0,0.0
95.445,2888,95,444000000,IMU,0.00014361561290010942,-0.0003083811120936655,0.027079995864824725,0.9996332117830052,0.0,0.0,0.0,0.0,0.0,0.0,0.0,0.0,0.0,0.030966604397429594,-0.014879207271366603,0.08650095381360937,0.0,0.0,0.0,0.0,0.0,0.0,0.0,0.0,0.0,0.009625503183367249,-0.048225991108445124,9.873741860911815,0.0,0.0,0.0,0.0,0.0,0.0,0.0,0.0,0.0
95.455,2889,95,454000000,IMU,0.00015120529186344055,-0.000337807670163927,0.0275586358404409,0.9996201201524267,0.0,0.0,0.0,0.0,0.0,0.0,0.0,0.0,0.0,-0.031650544551302284,0.018987376768057018,0.09009485627009836,0.0,0.0,0.0,0.0,0.0,0.0,0.0,0.0,0.0,-0.02721524921186723,-0.023514576983934776,9.945301877161766,0.0,0.0,0.0,0.0,0.0,0.0,0.0,0.0,0.0
95.465,2890,95,464000000,IMU,0.00015258082783300186,-0.00037648991305724833,0.028041189670647837,0.9996066859801864,0.0,0.0,0.0,0.0,0.0,0.0,0.0,0.0,0.0,0.03523111974281229,0.078549885375396,0.09856145381058831,0.0,0.0,0.0,0.0,0.0,0.0,0.0,0.0,0.0,0.08864860247404309,-0.021913513345063484,9.915280407435548,0.0,0.0,0.0,0.0,0.0,0.0,0.0,0.0,0.0
95.474,2891,95,474000000,IMU,0.0001474106137827912,-0.0003994011127637005,0.028529546276051043,0.9995928589871702,0.0,0.0,0.0,0.0,0.0,0.0,0.0,0.0,0.0,0.02403966937539059,-0.04190765797735466,0.10695833922832856,0.0,0.0,0.0,0.0,0.0,0.0,0.0,0.0,0.0,0.0856074347076185,-0.04848775515605655,9.92173492645865,0.0,0.0,0.0,0.0,0.0,0.0,0.0,0.0,0.0
95.485,2892,95,484000000,IMU,0.0001416982043282028,-0.0003958640674387902,0.029023050026333944,0.9995786541240403,0.0,0.0,0.0,0.0,0.0,0.0,0.0,0.0,0.0,-0.026550266102171732,0.003122810586362651,0.1002603694530686,0.0,0.0,0.0,0.0,0.0,0.0,0.0,0.0,0.0,0.015469676609672902,0.03680420219243068,9.936718183142238,0.0,0.0,0.0,0.0,0.0,0.0,0.0,0.0,0.0
95.495,2893,95,494000000,IMU,0.00014157552734571152,-0.0003741077109882831,0.029519381586421697,0.9995641280631002,0.0,0.0,0.0,0.0,0.0,0.0,0.0,0.0,0.0,0.001781316313055274,-0.009699674457268269,0.07589468519285228,0.0,0.0,0.0,0.0,0.0,0.0,0.0,0.0,0.0,-0.050782569228401006,0.04044124575094613,9.95102282227417,0.0,0.0,0.0,0.0,0.0,0.0,0.0,0.0,0.0
95.505,2894,95,504000000,IMU,0.0001492618259687707,-0.00035865791438030353,0.030064310223418253,0.99954789096681,0.0,0.0,0.0,0.0,0.0,0.0,0.0,0.0,0.0,0.040689760588979905,0.03523672283504624,0.09632715512524825,0.0,0.0,0.0,0.0,0.0,0.0,0.0,0.0,0.0,-0.01508822670963108,0.029565913890841133,9.865644603183036,0.0,0.0,0.0,0.0,0.0,0.0,0.0,0.0,0.0
95.515,2895,95,514000000,IMU,0.00015589748718253488,-0.0003698504495471518,0.03050801837622993,0.9995344414883233,0.0,0.0,0.0,0.0,0.0,0.0,0.0,0.0,0.0,-0.05946293820258768,-0.023137591626119614,0.12313744810252784,0.0,0.0,0.0,0.0,0.0,0.0,0.0,0.0,0.0,-0.0503801477997803,0.06074702124574748,9.82959378226341,0.0,0.0,0.0,0.0,0.0,0.0,0.0,0.0,0.0
95.525,2896,95,524000000,IMU,0.00015715135349850799,-0.0004034956178916289,0.03100043696109549,0.9995192771542526,0.0,0.0,0.0,0.0,0.0,0.0,0.0,0.0,0.0,0.0021202052614271378,-0.0672522251687648,0.01981712501022391,0.0,0.0,0.0,0.0,0.0,0.0,0.0,0.0,0.0,-0.05166981583970671,0.08126288896293808,9.906775130959707,0.0,0.0,0.0,0.0,0.0,0.0,0.0,0.0,0.0
95.535,2897,95,534000000,IMU,0.00015053262766677325,-0.0004400859595210442,0.031496107208897284,0.9995037663235502,0.0,0.0,0.0,0.0,0.0,0.0,0.0,0.0,0.0,-0.03556621504798646,-0.023111243880862015,0.1054116999858271,0.0,0.0,0.0,0.0,0.0,0.0,0.0,0.0,0.0,0.010636869764870528,-0.050293157579863884,10.082822632016896,0.0,0.0,0.0,0.0,0.0,0.0,0.0,0.0,0.0
95.545,2898,95,544000000,IMU,0.00014141610402416857,-0.00045757772983322773,0.03199899919232368,0.9994877861558872,0.0,0.0,0.0,0.0,0.0,0.0,0.0,0.0,0.0,0.01978912190006409,0.011386585124982173,0.14823965606667522,0.0,0.0,0.0,0.0,0.0,0.0,0.0,0.0,0.0,0.005994221288726325,-0.09946780093596966,9.857629981435267,0.0,0.0,0.0,0.0,0.0,0.0,0.0,0.0,0.0
95.555,2899,95,554000000,IMU,0.00013919255501097918,-0.00044799007621168393,0.03250999277200921,0.9994713003885046,0.0,0.0,0.0,0.0,0.0,0.0,0.0,0.0,0.0,-0.005693362755845926,-0.042990148787456516,0.09763943040908843,0.0,0.0,0.0,0.0,0.0,0.0,0.0,0.0,0.0,0.016564650242935307,-0.01912493159694008,9.922305719809778,0.0,0.0,0.0,0.0,0.0,0.0,0.0,0.0,0.0
95.565,2900,95,564000000,IMU,0.00014640596752266692,-0.0004273149646115354,0.0330243893812482,0.9994544440209417,0.0,0.0,0.0,0.0,0.0,0.0,0.0,0.0,0.0,0.007401600602087393,0.03805912707259108,0.13297881572221662,0.0,0.0,0.0,0.0,0.0,0.0,0.0,0.0,0.0,-0.03279757556067849,0.07701175996443034,9.959386785206023,0.0,0.0,0.0,0.0,0.0,0.0,0.0,0.0,0.0
95.575,2901,95,574000000,IMU,0.00015704348776458997,-0.0004196206220748681,0.03353647878094903,0.9994373936604791,0.0,0.0,0.0,0.0,0.0,0.0,0.0,0.0,0.0,-0.022336393203023157,-0.04827631187201926,0.09349193259921179,0.0,0.0,0.0,0.0,0.0,0.0,0.0,0.0,0.0,-0.019779852044720908,0.04702533922325354,9.943771734110214,0.0,0.0,0.0,0.0,0.0,0.0,0.0,0.0,0.0
95.584,2902,95,584000000,IMU,0.00016180594536739697,-0.00043817700860461365,0.03404358057632996,0.999420240159908,0.0,0.0,0.0,0.0,0.0,0.0,0.0,0.0,0.0,-0.0059067230505729425,0.02029996084936259,0.07344010224758166,0.0,0.0,0.0,0.0,0.0,0.0,0.0,0.0,0.0,-0.03977510635908761,-0.08956759786038701,9.93029665257464,0.0,0.0,0.0,0.0,0.0,0.0,0.0,0.0,0.0
95.595,2903,95,594000000,IMU,0.00015482767563339682,-0.000474953194589485,0.03454824148227893,0.9994029064688257,0.0,0.0,0.0,0.0,0.0,0.0,0.0,0.0,0.0,-0.03885890259733967,0.043502463909481544,0.1310691392477987,0.0,0.0,0.0,0.0,0.0,0.0,0.0,0.0,0.0,-0.03333165611985648,-0.07935971771456922,9.89584153352934,0.0,0.0,0.0,0.0,0.0,0.0,0.0,0.0,0.0
95.605,2904,95,604000000,IMU,0.000140234536711094,-0.0005091669808266482,0.03505638116624026,0.9993851966197956,0.0,0.0,0.0,0.0,0.0,0.0,0.0,0.0,0.0,0.07440275749190267,-0.016385456867459826,0.14449292252107432,0.0,0.0,0.0,0.0,0.0,0.0,0.0,0.0,0.0,0.126386163907656,0.05510765696275569,9.903967873375183,0.0,0.0,0.0,0.0,0.0,0.0,0.0,0.0,0.0
95.615,2905,95,614000000,IMU,0.00013102809047497104,-0.000519349461599724,0.03557403653681235,0.9993669001083905,0.0,0.0,0.0,0.0,0.0,0.0,0.0,0.0,0.0,-0.0078098845632398,0.04783004629176091,0.05096000428040235,0.0,0.0,0.0,0.0,0.0,0.0,0.0,0.0,0.0,0.04694332017987704,-0.14681213079993166,9.953532342990227,0.0,0.0,0.0,0.0,0.0,0.0,0.0,0.0,0.0
95.625,2906,95,624000000,IMU,0.00013561451357132446,-0.0005053324967976937,0.0361021802848275,0.9993479668396056,0.0,0.0,0.0,0.0,0.0,0.0,0.0,0.0,0.0,-0.024310519019194385,-0.033297606558831364,0.12961141799054088,0.0,0.0,0.0,0.0,0.0,0.0,0.0,0.0,0.0,0.015621422807599516,0.020746677206723546,9.855304635503492,0.0,0.0,0.0,0.0,0.0,0.0,0.0,0.0,0.0
95.635,2907,95,634000000,IMU,0.0001515710142476823,-0.0004852001902407832,0.03663428436428809,0.999328610025811,0.0,0.0,0.0,0.0,0.0,0.0,0.0,0.0,0.0,0.01127232952862309,-0.030264164557766534,0.11141427970754346,0.0,0.0,0.0,0.0,0.0,0.0,0.0,0.0,0.0,0.014261615977367697,0.07595991605687337,9.850540289874543,0.0,0.0,0.0,0.0,0.0,0.0,0.0,0.0,0.0
95.645,2908,95,644000000,IMU,0.00016492590993926005,-0.00048423991188413794,0.037161927821601826,0.9993091260624682,0.0,0.0,0.0,0.0,0.0,0.0,0.0,0.0,0.0,-0.013528080669861022,0.033458692954982515,0.08362949074019423,0.0,0.0,0.0,0.0,0.0,0.0,0.0,0.0,0.0,0.010273847996673706,0.059298444149514386,10.007427061402115,0.0,0.0,0.0,0.0,0.0,0.0,0.0,0.0,0.0
95.655,2909,95,654000000,IMU,0.00016397758375738644,-0.000509331956491171,0.037682019520519916,0.9992896372409581,0.0,0.0,0.0,0.0,0.0,0.0,0.0,0.0,0.0,0.02981504221820561,-0.0213725553365256,0.09161786372450789,0.0,0.0,0.0,0.0,0.0,0.0,0.0,0.0,0.0,-0.10841111002211894,0.04852538293474028,9.915908953025683,0.0,0.0,0.0,0.0,0.0,0.0,0.0,0.0,0.0
95.665,2910,95,664000000,IMU,0.00014838913803741672,-0.000544345632985335,0.03819869104080424,0.9992700043888363,0.0,0.0,0.0,0.0,0.0,0.0,0.0,0.0,0.0,-0.05922372304575524,0.06702951647789158,0.09261800278122946,0.0,0.0,0.0,0.0,0.0,0.0,0.0,0.0,0.0,-0.03757219137837603,0.007514409087648069,9.846798657330844,0.0,0.0,0.0,0.0,0.0,0.0,0.0,0.0,0.0
95.675,2911,95,674000000,IMU,0.00012907161101068473,-0.0005697772548789781,0.0387202295526601,0.9992499199488527,0.0,0.0,0.0,0.0,0.0,0.0,0.0,0.0,0.0,0.054714014295885766,0.08632612360207952,0.09888931087520234,0.0,0.0,0.0,0.0,0.0,0.0,0.0,0.0,0.0,0.015545220348450961,-0.06421845583838853,10.000731069985546,0.0,0.0,0.0,0.0,0.0,0.0,0.0,0.0,0.0
95.685,2912,95,684000000,IMU,0.00012263199891483618,-0.0005716187438903864,0.03925403325410816,0.9992290923940766,0.0,0.0,0.0,0.0,0.0,0.0,0.0,0.0,0.0,0.021901633326952424,0.0010430368063189864,0.05906380333654374,0.0,0.0,0.0,0.0,0.0,0.0,0.0,0.0,0.0,0.07069285645174382,-0.05525509829076945,9.881278656517091,0.0,0.0,0.0,0.0,0.0,0.0,0.0,0.0,0.0
95.695,2913,95,694000000,IMU,0.0001363905476765124,-0.000554607077639164,0.039800056134610205,0.9992075006425293,0.0,0.0,0.0,0.0,0.0,0.0,0.0,0.0,0.0,0.04386800438850822,-0.07310490409727502,0.17710203304164868,0.0,0.0,0.0,0.0,0.0,0.0,0.0,0.0,0.0,-0.019163692760405287,0.06093775263271942,9.85896581028588,0.0,0.0,0.0,0.0,0.0,0.0,0.0,0.0,0.0
95.705,2914,95,704000000,IMU,0.00015883724410821836,-0.000541744585699542,0.04034887134150442,0.9991854932218545,0.0,0.0,0.0,0.0,0.0,0.0,0.0,0.0,0.0,0.041169212636421496,0.01264602243490772,0.026044278242043292,0.0,0.0,0.0,0.0,0.0,0.0,0.0,0.0,0.0,-0.05466286613527192,0.004119585627825105,9.939018412769881,0.0,0.0,0.0,0.0,0.0,0.0,0.0,0.0,0.0
95.715,2915,95,714000000,IMU,0.0001707739216652005,-0.0005491949093660798,0.04089058435972453,0.9991634647703745,0.0,0.0,0.0,0.0,0.0,0.0,0.0,0.0,0.0,-0.006517275046814008,-0.05021285147995635,0.08313229830045253,0.0,0.0,0.0,0.0,0.0,0.0,0.0,0.0,0.0,-0.03768400898702052,0.011577999550180889,9.863020781006636,0.0,0.0,0.0,0.0,0.0,0.0,0.0,0.0,0.0
95.725,2916,95,724000000,IMU,0.00015947812984376202,-0.0005786887797375385,0.041475734231375114,0.999139331202606,0.0,0.0,0.0,0.0,0.0,0.0,0.0,0.0,0.0,0.001215927829140668,-0.011579813743518498,0.0752751393766402,0.0,0.0,0.0,0.0,0.0,0.0,0.0,0.0,0.0,0.038176471798083755,0.003315698569510958,9.888769364028844,0.0,0.0,0.0,0.0,0.0,0.0,0.0,0.0,0.0
95.735,2917,95,734000000,IMU,0.00013775393057548983,-0.0006049487870614114,0.04195176140344571,0.9991194446991651,0.0,0.0,0.0,0.0,0.0,0.0,0.0,0.0,0.0,0.030976666704329907,-0.04198002317255238,0.06253705496720995,0.0,0.0,0.0,0.0,0.0,0.0,0.0,0.0,0.0,0.03344288298549027,0.07073259218142042,9.982271999306812,0.0,0.0,0.0,0.0,0.0,0.0,0.0,0.0,0.0
95.745,2918,95,744000000,IMU,0.00011802963398884058,-0.0006208192257658997,0.04248732214241306,0.9990968061752882,0.0,0.0,0.0,0.0,0.0,0.0,0.0,0.0,0.0,0.0025008545659270446,0.01300746506462565,0.14770755049256587,0.0,0.0,0.0,0.0,0.0,0.0,0.0,0.0,0.0,0.002187955437537612,0.004329889115646864,10.001132184479761,0.0,0.0,0.0,0.0,0.0,0.0,0.0,0.0,0.0
95.755,2919,95,754000000,IMU,0.00011833619192716268,-0.0006184507178784328,0.043036643133137126,0.9990732960414296,0.0,0.0,0.0,0.0,0.0,0.0,0.0,0.0,0.0,-0.0039945544047595115,0.06281407151514244,0.14802639185307412,0.0,0.0,0.0,0.0,0.0,0.0,0.0,0.0,0.0,0.030411104006872185,0.05209454412502253,9.894476384465205,0.0,0.0,0.0,0.0,0.0,0.0,0.0,0.0,0.0
95.765,2920,95,764000000,IMU,0.00013863561202295894,-0.0006081943146082319,0.04359753100773591,0.9990489808662399,0.0,0.0,0.0,0.0,0.0,0.0,0.0,0.0,0.0,0.04288470866408045,0.0038615799249959986,0.11781942303737257,0.0,0.0,0.0,0.0,0.0,0.0,0.0,0.0,0.0,0.012418420359029384,0.026015346949682862,10.022878513282832,0.0,0.0,0.0,0.0,0.0,0.0,0.0,0.0,0.0
95.775,2921,95,774000000,IMU,0.00016178977809383092,-0.0006065237926265625,0.04415924516350692,0.9990243075218671,0.0,0.0,0.0,0.0,0.0,0.0,0.0,0.0,0.0,-0.03788890495985135,-0.028994742974284903,0.13674342012673804,0.0,0.0,0.0,0.0,0.0,0.0,0.0,0.0,0.0,0.03389925688743802,-0.017962881229229878,9.871620628967817,0.0,0.0,0.0,0.0,0.0,0.0,0.0,0.0,0.0
95.784,2922,95,784000000,IMU,0.0001666328730311856,-0.0006222036663083831,0.04471122107931406,0.9989997456484562,0.0,0.0,0.0,0.0,0.0,0.0,0.0,0.0,0.0,0.035424423923041765,-0.05133113433354316,0.1947209982519597,0.0,0.0,0.0,0.0,0.0,0.0,0.0,0.0,0.0,-0.013455867762363252,0.002408623167929074,9.949475412458437,0.0,0.0,0.0,0.0,0.0,0.0,0.0,0.0,0.0
95.795,2923,95,794000000,IMU,0.00014589269596143166,-0.0006491633238053971,0.04525272161058115,0.9989753492900292,0.0,0.0,0.0,0.0,0.0,0.0,0.0,0.0,0.0,-0.04649268106286126,-0.004000832997780212,0.10344774265493348,0.0,0.0,0.0,0.0,0.0,0.0,0.0,0.0,0.0,0.05577382176710671,0.0357065303654643,9.968923144435102,0.0,0.0,0.0,0.0,0.0,0.0,0.0,0.0,0.0
95.804,2924,95,804000000,IMU,0.00011337823963036426,-0.0006715467410936669,0.045791831190878984,0.9989507717433004,0.0,0.0,0.0,0.0,0.0,0.0,0.0,0.0,0.0,-0.03639838222550512,-0.039850866506398394,0.09809572722022752,0.0,0.0,0.0,0.0,0.0,0.0,0.0,0.0,0.0,-0.03433776339952679,-0.00450583363657714,9.882376514034954,0.0,0.0,0.0,0.0,0.0,0.0,0.0,0.0,0.0
95.815,2925,95,814000000,IMU,9.584099235729133e-05,-0.0006778258820741967,0.04634138091685925,0.9989254265365841,0.0,0.0,0.0,0.0,0.0,0.0,0.0,0.0,0.0,0.04070118687037065,-0.039153944047522656,0.07613185231813496,0.0,0.0,0.0,0.0,0.0,0.0,0.0,0.0,0.0,0.032894799106908804,0.0031618332629174996,9.90185653568716,0.0,0.0,0.0,0.0,0.0,0.0,0.0,0.0,0.0
95.824,2926,95,824000000,IMU,0.00010678498699996272,-0.0006720708652261925,0.046907986918247206,0.9988989827209739,0.0,0.0,0.0,0.0,0.0,0.0,0.0,0.0,0.0,0.035894835456543005,-0.02311298520023738,0.16492202776476364,0.0,0.0,0.0,0.0,0.0,0.0,0.0,0.0,0.0,-0.045135677137244486,-0.06385815229293598,9.878506466008544,0.0,0.0,0.0,0.0,0.0,0.0,0.0,0.0,0.0
95.835,2927,95,834000000,IMU,0.0001372100238111584,-0.0006673890182603086,0.047484935586009455,0.9988717218230279,0.0,0.0,0.0,0.0,0.0,0.0,0.0,0.0,0.0,0.014151935357936362,0.014261163875597666,0.12871511787620304,0.0,0.0,0.0,0.0,0.0,0.0,0.0,0.0,0.0,-0.013882974530975097,0.011376276530442687,9.959540166416701,0.0,0.0,0.0,0.0,0.0,0.0,0.0,0.0,0.0
95.844,2928,95,844000000,IMU,0.00015888969475645948,-0.0006762209615403651,0.04805943413673049,0.998844236239932,0.0,0.0,0.0,0.0,0.0,0.0,0.0,0.0,0.0,-0.05984161737338562,-0.05013446486134448,0.19279618599023923,0.0,0.0,0.0,0.0,0.0,0.0,0.0,0.0,0.0,0.04171400753978518,0.04004777728158246,9.878028112856793,0.0,0.0,0.0,0.0,0.0,0.0,0.0,0.0,0.0
95.855,2929,95,854000000,IMU,0.0001536955011632583,-0.0006957213166832378,0.04862216134937877,0.9988169891302697,0.0,0.0,0.0,0.0,0.0,0.0,0.0,0.0,0.0,-0.011901761347286766,0.025497955061152273,0.11440033085597767,0.0,0.0,0.0,0.0,0.0,0.0,0.0,0.0,0.0,-0.011469620228689017,0.08225891349383119,9.983903138970717,0.0,0.0,0.0,0.0,0.0,0.0,0.0,0.0,0.0
95.865,2930,95,864000000,IMU,0.00012532437620257133,-0.0007145547354206139,0.049175310359314856,0.9987898991061112,0.0,0.0,0.0,0.0,0.0,0.0,0.0,0.0,0.0,0.0049996628310014085,0.0507985934334848,0.09108693970401271,0.0,0.0,0.0,0.0,0.0,0.0,0.0,0.0,0.0,-0.04805787677655285,-0.030879922329119926,9.971456721234436,0.0,0.0,0.0,0.0,0.0,0.0,0.0,0.0,0.0
95.875,2931,95,874000000,IMU,9.6202310246284e-05,-0.0007236287575379924,0.049729548389398935,0.998762453801465,0.0,0.0,0.0,0.0,0.0,0.0,0.0,0.0,0.0,0.009651043829349667,-0.01893849353499997,0.061198831530405465,0.0,0.0,0.0,0.0,0.0,0.0,0.0,0.0,0.0,0.017506310737559483,0.06377009931796618,9.94153276628972,0.0,0.0,0.0,0.0,0.0,0.0,0.0,0.0,0.0
95.884,2932,95,884000000,IMU,8.974255840183216e-05,-0.0007199182415737244,0.05029665637482663,0.9987340587070771,0.0,0.0,0.0,0.0,0.0,0.0,0.0,0.0,0.0,-0.03581709679633209,0.0546070501046719,0.16482066912971186,0.0,0.0,0.0,0.0,0.0,0.0,0.0,0.0,0.0,-0.05041078511218189,-0.04663269363022175,9.993035990012153,0.0,0.0,0.0,0.0,0.0,0.0,0.0,0.0,0.0
95.894,2933,95,894000000,IMU,0.00011238157934986052,-0.0007163029697254738,0.050880110121289394,0.9987045051838315,0.0,0.0,0.0,0.0,0.0,0.0,0.0,0.0,0.0,0.03439387225479414,-0.03300486208152623,0.2069091190086357,0.0,0.0,0.0,0.0,0.0,0.0,0.0,0.0,0.0,0.07475251186758834,-0.02204101876660866,9.875933106224926,0.0,0.0,0.0,0.0,0.0,0.0,0.0,0.0,0.0
95.905,2934,95,904000000,IMU,0.00014392990348104917,-0.0007248132402925447,0.0514706930249277,0.9986742320143658,0.0,0.0,0.0,0.0,0.0,0.0,0.0,0.0,0.0,0.03997293306165659,0.004741331585265236,0.1179319197183153,0.0,0.0,0.0,0.0,0.0,0.0,0.0,0.0,0.0,0.1824286447640216,0.0368049011134904,9.94498883409029,0.0,0.0,0.0,0.0,0.0,0.0,0.0,0.0,0.0
95.915,2935,95,914000000,IMU,0.000157294429982878,-0.0007434684019702153,0.052054438593198006,0.9986439595451145,0.0,0.0,0.0,0.0,0.0,0.0,0.0,0.0,0.0,-0.011783555059544183,-0.04211653649984805,0.15411767934952733,0.0,0.0,0.0,0.0,0.0,0.0,0.0,0.0,0.0,0.02850195086919178,0.05055075592084744,9.89878352645222,0.0,0.0,0.0,0.0,0.0,0.0,0.0,0.0,0.0
95.925,2936,95,924000000,IMU,0.0001387091584179618,-0.0007611626994412882,0.05262515449454827,0.9986140368057819,0.0,0.0,0.0,0.0,0.0,0.0,0.0,0.0,0.0,-0.03021831997042765,0.005500418160561443,0.07457348115653609,0.0,0.0,0.0,0.0,0.0,0.0,0.0,0.0,0.0,-0.01766038621462659,-0.02624071215258563,9.877253852472062,0.0,0.0,0.0,0.0,0.0,0.0,0.0,0.0,0.0
95.935,2937,95,934000000,IMU,0.0001017403351078429,-0.0007688133773906135,0.05318804959938673,0.9985842127505863,0.0,0.0,0.0,0.0,0.0,0.0,0.0,0.0,0.0,-0.025134043283369885,-0.008316672969987855,0.1378907824184539,0.0,0.0,0.0,0.0,0.0,0.0,0.0,0.0,0.0,-0.006411527406116399,0.003853096487550919,9.893688480462771,0.0,0.0,0.0,0.0,0.0,0.0,0.0,0.0,0.0
95.945,2938,95,944000000,IMU,7.597132059936099e-05,-0.000766430314433367,0.053755944747297654,0.9985538068713458,0.0,0.0,0.0,0.0,0.0,0.0,0.0,0.0,0.0,-0.0003667687740257714,0.021319377431969176,0.09830569060852226,0.0,0.0,0.0,0.0,0.0,0.0,0.0,0.0,0.0,-0.03946899511713119,-0.044627071969288876,10.049783296154354,0.0,0.0,0.0,0.0,0.0,0.0,0.0,0.0,0.0
95.955,2939,95,954000000,IMU,8.177019848653213e-05,-0.0007647454186678177,0.054338683572612366,0.9985222661241336,0.0,0.0,0.0,0.0,0.0,0.0,0.0,0.0,0.0,0.04838627901612327,0.00852817209081434,0.15801094681698064,0.0,0.0,0.0,0.0,0.0,0.0,0.0,0.0,0.0,-0.07781640757758324,-0.03159601557960004,9.975233046239463,0.0,0.0,0.0,0.0,0.0,0.0,0.0,0.0,0.0
95.965,2940,95,964000000,IMU,0.00010964534484834012,-0.0007738343800026683,0.054934688605621416,0.9984896439853816,0.0,0.0,0.0,0.0,0.0,0.0,0.0,0.0,0.0,0.07110843975791693,-0.02046928228270249,0.12270498346169562,0.0,0.0,0.0,0.0,0.0,0.0,0.0,0.0,0.0,-0.08811073345114342,-0.027519999860275982,9.921840107232557,0.0,0.0,0.0,0.0,0.0,0.0,0.0,0.0,0.0
95.974,2941,95,974000000,IMU,0.00013469885437014342,-0.0007938980111972922,0.05553384211232272,0.9984564807553759,0.0,0.0,0.0,0.0,0.0,0.0,0.0,0.0,0.0,0.02822033433974351,-0.03301852270406427,0.0675029593385872,0.0,0.0,0.0,0.0,0.0,0.0,0.0,0.0,0.0,0.07773846207024565,0.07902450990538215,9.951443195023865,0.0,0.0,0.0,0.0,0.0,0.0,0.0,0.0,0.0
95.985,2942,95,984000000,IMU,0.0001336039010133747,-0.0008126756865346773,0.05612442228283751,0.998423442699361,0.0,0.0,0.0,0.0,0.0,0.0,0.0,0.0,0.0,0.03854157353074209,-0.025594295389834442,0.09861386036231252,0.0,0.0,0.0,0.0,0.0,0.0,0.0,0.0,0.0,-0.039181013435917664,0.06402167901824306,10.020831798681165,0.0,0.0,0.0,0.0,0.0,0.0,0.0,0.0,0.0
95.994,2943,95,994000000,IMU,0.00010517666630013415,-0.0008192202535183746,0.05670399543454171,0.9983906924234645,0.0,0.0,0.0,0.0,0.0,0.0,0.0,0.0,0.0,-0.06169914526844316,-0.013996952583457624,0.1656305528166477,0.0,0.0,0.0,0.0,0.0,0.0,0.0,0.0,0.0,-0.057288670221749174,0.10191599083092938,10.008469290831696,0.0,0.0,0.0,0.0,0.0,0.0,0.0,0.0,0.0
96.004,2944,96,4000000,IMU,7.296283562864272e-05,-0.0008138334875657269,0.05728061492479226,0.9983577833148379,0.0,0.0,0.0,0.0,0.0,0.0,0.0,0.0,0.0,0.07251644165588314,0.020438554856477366,0.14434842554344324,0.0,0.0,0.0,0.0,0.0,0.0,0.0,0.0,0.0,0.03644764821140949,-0.12070488354282854,9.976076403784301,0.0,0.0,0.0,0.0,0.0,0.0,0.0,0.0,0.0
96.014,2945,96,14000000,IMU,6.236492318536858e-05,-0.0008079208717819623,0.057865020763673794,0.9983240870311109,0.0,0.0,0.0,0.0,0.0,0.0,0.0,0.0,0.0,-0.012572802358168246,0.05548494448431895,0.06920963633517148,0.0,0.0,0.0,0.0,0.0,0.0,0.0,0.0,0.0,0.04797240579638261,-0.000332573709165649,10.034648011433028,0.0,0.0,0.0,0.0,0.0,0.0,0.0,0.0,0.0
96.025,2946,96,24000000,IMU,8.113306196645371e-05,-0.0008165878566810728,0.058523289686543044,0.9982857061813335,0.0,0.0,0.0,0.0,0.0,0.0,0.0,0.0,0.0,0.045723597544116514,0.001669241499406806,0.06050254950030269,0.0,0.0,0.0,0.0,0.0,0.0,0.0,0.0,0.0,0.06608812937481917,-0.08443584714758813,9.956232506954441,0.0,0.0,0.0,0.0,0.0,0.0,0.0,0.0,0.0
96.035,2947,96,34000000,IMU,0.0001053583874642638,-0.0008378621408869503,0.05907072500546378,0.9982534429361976,0.0,0.0,0.0,0.0,0.0,0.0,0.0,0.0,0.0,-0.004996881887980229,-0.01754343698735027,0.13020049099615646,0.0,0.0,0.0,0.0,0.0,0.0,0.0,0.0,0.0,-0.0008902496534105696,-0.00043170816432257057,9.946911821602912,0.0,0.0,0.0,0.0,0.0,0.0,0.0,0.0,0.0
96.045,2948,96,44000000,IMU,0.00011753288313757855,-0.0008638571131308607,0.059677156125830993,0.9982173495655358,0.0,0.0,0.0,0.0,0.0,0.0,0.0,0.0,0.0,0.04854520810161678,0.013836580252230099,0.13705297060170957,0.0,0.0,0.0,0.0,0.0,0.0,0.0,0.0,0.0,0.0020932973370117215,-0.019328491013101547,9.958952965253753,0.0,0.0,0.0,0.0,0.0,0.0,0.0,0.0,0.0
96.055,2949,96,54000000,IMU,0.00010047870208310033,-0.0008753193716363231,0.06027415247267014,0.9981814716091104,0.0,0.0,0.0,0.0,0.0,0.0,0.0,0.0,0.0,0.003492082938928457,0.03059264389685709,0.16429779487378252,0.0,0.0,0.0,0.0,0.0,0.0,0.0,0.0,0.0,-0.056558748095710466,0.12562551609970918,9.945793945981748,0.0,0.0,0.0,0.0,0.0,0.0,0.0,0.0,0.0
96.065,2950,96,64000000,IMU,6.478763250431123e-05,-0.0008657134904943101,0.06086295246870508,0.9981457545666902,0.0,0.0,0.0,0.0,0.0,0.0,0.0,0.0,0.0,-0.051737548459988944,0.04669119540362587,0.08485478607414951,0.0,0.0,0.0,0.0,0.0,0.0,0.0,0.0,0.0,-0.05340605167411449,-0.061144112296701456,9.943461155521911,0.0,0.0,0.0,0.0,0.0,0.0,0.0,0.0,0.0
96.074,2951,96,74000000,IMU,4.254892398903218e-05,-0.0008508173729438,0.06145328804193999,0.9981095970324207,0.0,0.0,0.0,0.0,0.0,0.0,0.0,0.0,0.0,-0.026839326492026323,0.015215348116464106,0.10545531149657807,0.0,0.0,0.0,0.0,0.0,0.0,0.0,0.0,0.0,0.05888886348971186,-0.06352683821086948,10.014960208211319,0.0,0.0,0.0,0.0,0.0,0.0,0.0,0.0,0.0
96.085,2952,96,84000000,IMU,4.771677037454652e-05,-0.0008499629132556562,0.06205326845574529,0.9980724759054901,0.0,0.0,0.0,0.0,0.0,0.0,0.0,0.0,0.0,0.0009537266970624288,-0.007852693604480898,0.08566414595539587,0.0,0.0,0.0,0.0,0.0,0.0,0.0,0.0,0.0,0.02027156404591173,-0.006204386382989178,10.031777833946245,0.0,0.0,0.0,0.0,0.0,0.0,0.0,0.0,0.0
96.095,2953,96,94000000,IMU,7.096278965185907e-05,-0.0008721185614592648,0.06266443929020006,0.9980342691621075,0.0,0.0,0.0,0.0,0.0,0.0,0.0,0.0,0.0,-0.002009738669901751,0.00198135701271478,0.1006581669458888,0.0,0.0,0.0,0.0,0.0,0.0,0.0,0.0,0.0,0.03563418335994135,0.010952684650177376,9.971794695437424,0.0,0.0,0.0,0.0,0.0,0.0,0.0,0.0,0.0
96.105,2954,96,104000000,IMU,9.015637294878363e-05,-0.0009065103533673806,0.0632803106254471,0.9979953769421753,0.0,0.0,0.0,0.0,0.0,0.0,0.0,0.0,0.0,0.015987002848954688,-0.05687065143403498,0.12804634062954776,0.0,0.0,0.0,0.0,0.0,0.0,0.0,0.0,0.0,0.09216238733583733,-0.07881799486823045,9.974600365926971,0.0,0.0,0.0,0.0,0.0,0.0,0.0,0.0,0.0
96.115,2955,96,114000000,IMU,8.616190681398572e-05,-0.000928069394463332,0.06389288225237967,0.9979563271310066,0.0,0.0,0.0,0.0,0.0,0.0,0.0,0.0,0.0,-0.05719021412644335,0.027306232183563744,0.15805234936995155,0.0,0.0,0.0,0.0,0.0,0.0,0.0,0.0,0.0,0.01703737545214492,0.030469555372740043,9.904833860085267,0.0,0.0,0.0,0.0,0.0,0.0,0.0,0.0,0.0
96.124,2956,96,124000000,IMU,6.182410331171939e-05,-0.0009223883062566746,0.06449865869404081,0.9979173655189403,0.0,0.0,0.0,0.0,0.0,0.0,0.0,0.0,0.0,0.030943852192437858,0.0007413101528004982,0.15782677726738878,0.0,0.0,0.0,0.0,0.0,0.0,0.0,0.0,0.0,-0.046729079963577266,-0.04647353739948216,9.928548668955733,0.0,0.0,0.0,0.0,0.0,0.0,0.0,0.0,0.0
96.135,2957,96,134000000,IMU,3.6789342185258715e-05,-0.0008997225142463712,0.0651009297966259,0.997878278191061,0.0,0.0,0.0,0.0,0.0,0.0,0.0,0.0,0.0,-0.015730891329420425,0.02758431846725825,0.1282242365758502,0.0,0.0,0.0,0.0,0.0,0.0,0.0,0.0,0.0,0.05294637270889773,-0.024679289373693177,9.983253948897866,0.0,0.0,0.0,0.0,0.0,0.0,0.0,0.0,0.0
96.145,2958,96,144000000,IMU,3.0226711445345427e-05,-0.0008850806652315801,0.06570604992560403,0.9978386295998648,0.0,0.0,0.0,0.0,0.0,0.0,0.0,0.0,0.0,-0.03163761745203586,-0.006369174295725873,0.16199331505718267,0.0,0.0,0.0,0.0,0.0,0.0,0.0,0.0,0.0,0.04471920330094562,-0.042467368677933895,9.993760726832539,0.0,0.0,0.0,0.0,0.0,0.0,0.0,0.0,0.0
96.155,2959,96,154000000,IMU,4.3741630470808285e-05,-0.0008990294850799509,0.06631907706932325,0.9977980606562271,0.0,0.0,0.0,0.0,0.0,0.0,0.0,0.0,0.0,-0.029693501851907743,-0.03848493539939569,0.09488704538943496,0.0,0.0,0.0,0.0,0.0,0.0,0.0,0.0,0.0,-0.028286132141771038,-0.016634439548032953,9.956229780563394,0.0,0.0,0.0,0.0,0.0,0.0,0.0,0.0,0.0
96.165,2960,96,164000000,IMU,6.0184851861709466e-05,-0.0009350953681134985,0.06693844686631494,0.9977566668810396,0.0,0.0,0.0,0.0,0.0,0.0,0.0,0.0,0.0,0.021752057781632198,-0.020330882441589673,0.07512656856523045,0.0,0.0,0.0,0.0,0.0,0.0,0.0,0.0,0.0,-0.006255566872201128,-0.027482443953792096,9.906017265826137,0.0,0.0,0.0,0.0,0.0,0.0,0.0,0.0,0.0
96.175,2961,96,174000000,IMU,6.183773233908991e-05,-0.0009670719869571919,0.06756005317069264,0.9977147388725097,0.0,0.0,0.0,0.0,0.0,0.0,0.0,0.0,0.0,-0.053379716498011244,-0.031777756305251176,0.17678824452240416,0.0,0.0,0.0,0.0,0.0,0.0,0.0,0.0,0.0,-0.07481332737048951,-0.003574836148842766,10.065061524074851,0.0,0.0,0.0,0.0,0.0,0.0,0.0,0.0,0.0
96.185,2962,96,184000000,IMU,4.5309428246238516e-05,-0.0009711494541308234,0.06817962114247209,0.9976725886164572,0.0,0.0,0.0,0.0,0.0,0.0,0.0,0.0,0.0,-0.02678806596342069,-0.029230156465437637,0.13706368746457478,0.0,0.0,0.0,0.0,0.0,0.0,0.0,0.0,0.0,-0.032565079789040774,-0.03996857445604814,9.973830859651644,0.0,0.0,0.0,0.0,0.0,0.0,0.0,0.0,0.0
96.194,2963,96,194000000,IMU,2.3607422426848956e-05,-0.000947012311916053,0.06879616103524386,0.9976302876502816,0.0,0.0,0.0,0.0,0.0,0.0,0.0,0.0,0.0,-0.02762132642735796,-0.005117235524813388,0.16053761823063145,0.0,0.0,0.0,0.0,0.0,0.0,0.0,0.0,0.0,-0.06067758582170358,0.018048824579255756,9.880650653694694,0.0,0.0,0.0,0.0,0.0,0.0,0.0,0.0,0.0
96.205,2964,96,204000000,IMU,1.4145477845231981e-05,-0.0009219652631753789,0.06941159912197088,0.9975876802002367,0.0,0.0,0.0,0.0,0.0,0.0,0.0,0.0,0.0,-0.023128214924262102,-0.021835051662992863,0.06425574108844778,0.0,0.0,0.0,0.0,0.0,0.0,0.0,0.0,0.0,-0.0068000400723099465,-0.00847432477806393,10.019776097762541,0.0,0.0,0.0,0.0,0.0,0.0,0.0,0.0,0.0
96.215,2965,96,214000000,IMU,2.016314335043589e-05,-0.0009228013951196202,0.07002924113588406,0.9975445119978181,0.0,0.0,0.0,0.0,0.0,0.0,0.0,0.0,0.0,0.07108085422659594,0.0024914879645607335,0.15164422808135147,0.0,0.0,0.0,0.0,0.0,0.0,0.0,0.0,0.0,-0.041045468597688387,0.055083476090039454,9.975170378854868,0.0,0.0,0.0,0.0,0.0,0.0,0.0,0.0,0.0
96.225,2966,96,224000000,IMU,3.2428993571847784e-05,-0.0009572101108949926,0.07065113713382623,0.9975006263250472,0.0,0.0,0.0,0.0,0.0,0.0,0.0,0.0,0.0,0.020802959942615756,-0.008540668650727697,0.10045505100873255,0.0,0.0,0.0,0.0,0.0,0.0,0.0,0.0,0.0,-0.03870632852676309,-0.04921185132529402,9.982223648187485,0.0,0.0,0.0,0.0,0.0,0.0,0.0,0.0,0.0
96.235,2967,96,234000000,IMU,3.5025947314152196e-05,-0.0009996817508381,0.07127731821334653,0.9974560357819754,0.0,0.0,0.0,0.0,0.0,0.0,0.0,0.0,0.0,0.01903674370915389,0.024561766389001063,0.1661378096985878,0.0,0.0,0.0,0.0,0.0,0.0,0.0,0.0,0.0,0.02737231866996468,0.028451546489300504,9.978996870367363,0.0,0.0,0.0,0.0,0.0,0.0,0.0,0.0,0.0
96.245,2968,96,244000000,IMU,2.27838716914181e-05,-0.0010176337220825092,0.07190652796869944,0.9974108557349822,0.0,0.0,0.0,0.0,0.0,0.0,0.0,0.0,0.0,-0.06086092274921034,-0.039914814459684755,0.13652744262476676,0.0,0.0,0.0,0.0,0.0,0.0,0.0,0.0,0.0,0.0904436707885401,0.0016848397258735354,10.005330266093244,0.0,0.0,0.0,0.0,0.0,0.0,0.0,0.0,0.0
96.254,2969,96,254000000,IMU,5.381227770894139e-06,-0.0009982474315329505,0.07253669320118918,0.9973652448388928,0.0,0.0,0.0,0.0,0.0,0.0,0.0,0.0,0.0,0.001156512673838049,0.023114830318495306,0.11733679379384565,0.0,0.0,0.0,0.0,0.0,0.0,0.0,0.0,0.0,0.07174089890702134,0.06300798171377646,9.974294541691862,0.0,0.0,0.0,0.0,0.0,0.0,0.0,0.0,0.0
96.265,2970,96,264000000,IMU,-2.475873906685513e-06,-0.0009662274996359939,0.07316584333124922,0.9973193198609542,0.0,0.0,0.0,0.0,0.0,0.0,0.0,0.0,0.0,-0.017686828468928804,0.03759027026335131,0.10532571216378513,0.0,0.0,0.0,0.0,0.0,0.0,0.0,0.0,0.0,-0.033212398938553975,-0.003354875440889608,9.965667240784404,0.0,0.0,0.0,0.0,0.0,0.0,0.0,0.0,0.0
96.275,2971,96,274000000,IMU,1.5100511023556067e-06,-0.0009542075029542186,0.07379284037226248,0.9972731352019641,0.0,0.0,0.0,0.0,0.0,0.0,0.0,0.0,0.0,-0.011867846107851687,-0.02037444140557519,0.12139492262191148,0.0,0.0,0.0,0.0,0.0,0.0,0.0,0.0,0.0,-0.04697624817590369,0.08084052835448285,10.037030808639106,0.0,0.0,0.0,0.0,0.0,0.0,0.0,0.0,0.0
96.285,2972,96,284000000,IMU,8.806283903290942e-06,-0.0009781805798634517,0.07441869023363892,0.9972266049545169,0.0,0.0,0.0,0.0,0.0,0.0,0.0,0.0,0.0,0.02821110683699339,-0.0019891360015784074,0.14220666138482313,0.0,0.0,0.0,0.0,0.0,0.0,0.0,0.0,0.0,-0.014828731266025184,0.05813367621206819,10.017298499448703,0.0,0.0,0.0,0.0,0.0,0.0,0.0,0.0,0.0
96.294,2973,96,294000000,IMU,7.4571669762249914e-06,-0.0010227021542108371,0.07504620486963487,0.9971795330628077,0.0,0.0,0.0,0.0,0.0,0.0,0.0,0.0,0.0,-0.0020046088441890253,0.016009614220157016,0.09950365330942576,0.0,0.0,0.0,0.0,0.0,0.0,0.0,0.0,0.0,0.019565419498054123,0.020364318753868578,10.009971258344498,0.0,0.0,0.0,0.0,0.0,0.0,0.0,0.0,0.0
96.304,2974,96,304000000,IMU,-4.3160468540900495e-06,-0.0010512238169603399,0.07567856319356615,0.9971317114518101,0.0,0.0,0.0,0.0,0.0,0.0,0.0,0.0,0.0,0.019614641356194812,0.00020915841791672345,0.08131373788472149,0.0,0.0,0.0,0.0,0.0,0.0,0.0,0.0,0.0,0.10163147283074662,0.02694347092290567,10.027093781016239,0.0,0.0,0.0,0.0,0.0,0.0,0.0,0.0,0.0
96.315,2975,96,314000000,IMU,-1.726028016873365e-05,-0.0010423328334542704,0.07631755642648448,0.9970830175193224,0.0,0.0,0.0,0.0,0.0,0.0,0.0,0.0,0.0,0.0070645187207023195,0.018127915534141573,0.13359001917804497,0.0,0.0,0.0,0.0,0.0,0.0,0.0,0.0,0.0,0.04051957518195575,0.01976470990985481,9.924069977847234,0.0,0.0,0.0,0.0,0.0,0.0,0.0,0.0,0.0
96.325,2976,96,324000000,IMU,-2.1203726160194624e-05,-0.0010063570410077636,0.07695988162414708,0.9970336821874702,0.0,0.0,0.0,0.0,0.0,0.0,0.0,0.0,0.0,0.005595433774860797,0.01033876777972663,0.15212177310959923,0.0,0.0,0.0,0.0,0.0,0.0,0.0,0.0,0.0,-0.039983302068699975,0.041950674538025014,9.940131302461868,0.0,0.0,0.0,0.0,0.0,0.0,0.0,0.0,0.0
96.335,2977,96,334000000,IMU,-1.4887080504688184e-05,-0.0009819930253247644,0.07759947747762377,0.9969841305473588,0.0,0.0,0.0,0.0,0.0,0.0,0.0,0.0,0.0,0.07942811054904488,-0.017865943815334503,0.1316027535253446,0.0,0.0,0.0,0.0,0.0,0.0,0.0,0.0,0.0,0.024032439819749698,-0.009646812793813332,10.001388967520327,0.0,0.0,0.0,0.0,0.0,0.0,0.0,0.0,0.0
96.345,2978,96,344000000,IMU,-9.156378786919914e-06,-0.0009927101934644352,0.07823325375622206,0.9969345878488453,0.0,0.0,0.0,0.0,0.0,0.0,0.0,0.0,0.0,-0.010146301787026371,0.019623099658133292,0.06499526626948962,0.0,0.0,0.0,0.0,0.0,0.0,0.0,0.0,0.0,0.04665816893972903,-0.05555240260906269,10.006823739710761,0.0,0.0,0.0,0.0,0.0,0.0,0.0,0.0,0.0
96.355,2979,96,354000000,IMU,-1.5007765235793076e-05,-0.001030962138914532,0.07886375272619202,0.9968848706835596,0.0,0.0,0.0,0.0,0.0,0.0,0.0,0.0,0.0,0.044629846124333496,-0.016869004834517247,0.18628599830303338,0.0,0.0,0.0,0.0,0.0,0.0,0.0,0.0,0.0,-0.012581498760283777,0.03910523516461072,9.975382666098165,0.0,0.0,0.0,0.0,0.0,0.0,0.0,0.0,0.0
96.365,2980,96,364000000,IMU,-3.1283357336030176e-05,-0.001065522071099535,0.07949748501602669,0.9968344965741275,0.0,0.0,0.0,0.0,0.0,0.0,0.0,0.0,0.0,0.013652734151348864,-0.004443702651080066,0.13580046785623914,0.0,0.0,0.0,0.0,0.0,0.0,0.0,0.0,0.0,0.00016329538019355105,-0.025104393270743278,9.937173215610489,0.0,0.0,0.0,0.0,0.0,0.0,0.0,0.0,0.0
96.375,2981,96,374000000,IMU,-4.5149683597254884e-05,-0.0010687425827749816,0.08014055167759024,0.996782999317108,0.0,0.0,0.0,0.0,0.0,0.0,0.0,0.0,0.0,0.006553724391443068,-0.03189323501004595,0.13456679553124518,0.0,0.0,0.0,0.0,0.0,0.0,0.0,0.0,0.0,0.02775693049871697,-0.00038969133179935986,10.123568630807151,0.0,0.0,0.0,0.0,0.0,0.0,0.0,0.0,0.0
96.385,2982,96,384000000,IMU,-4.507201253848266e-05,-0.0010396250156225948,0.08079339778625529,0.9967303266292706,0.0,0.0,0.0,0.0,0.0,0.0,0.0,0.0,0.0,-0.0012110454272278894,0.02670260418843409,0.1335744001196694,0.0,0.0,0.0,0.0,0.0,0.0,0.0,0.0,0.0,0.09519901245312432,0.050373281561062425,9.99034692647417,0.0,0.0,0.0,0.0,0.0,0.0,0.0,0.0,0.0
96.395,2983,96,394000000,IMU,-3.246919438296034e-05,-0.0010080707271434709,0.08144687859521288,0.996677173766038,0.0,0.0,0.0,0.0,0.0,0.0,0.0,0.0,0.0,0.013524833640744652,0.03375780809962033,0.17834195384568463,0.0,0.0,0.0,0.0,0.0,0.0,0.0,0.0,0.0,-1.013602488121601e-05,0.06166079627690515,9.97208676643295,0.0,0.0,0.0,0.0,0.0,0.0,0.0,0.0,0.0
96.405,2984,96,404000000,IMU,-2.2053416161690084e-05,-0.0010061105824671255,0.08209184136932741,0.9966242606096521,0.0,0.0,0.0,0.0,0.0,0.0,0.0,0.0,0.0,0.042060887762046556,0.06107164450907501,0.1451404357696774,0.0,0.0,0.0,0.0,0.0,0.0,0.0,0.0,0.0,-0.060826295234122196,-0.010890950769020948,10.013491767354841,0.0,0.0,0.0,0.0,0.0,0.0,0.0,0.0,0.0
96.415,2985,96,414000000,IMU,-2.939932463906816e-05,-0.001038392031992053,0.08272727913837434,0.9965716824012357,0.0,0.0,0.0,0.0,0.0,0.0,0.0,0.0,0.0,0.02380769624923501,-0.009645092815286475,0.24563208492327915,0.0,0.0,0.0,0.0,0.0,0.0,0.0,0.0,0.0,-0.0009898909008354407,-0.04505889579761816,10.054480389112689,0.0,0.0,0.0,0.0,0.0,0.0,0.0,0.0,0.0
96.425,2986,96,424000000,IMU,-5.2620569260493684e-05,-0.0010789822339992302,0.08336140708258977,0.9965187950247728,0.0,0.0,0.0,0.0,0.0,0.0,0.0,0.0,0.0,-0.014682119579962832,-0.015440910364850277,0.16458341481481037,0.0,0.0,0.0,0.0,0.0,0.0,0.0,0.0,0.0,0.058457009091429306,-0.05100839331371161,9.907189420629617,0.0,0.0,0.0,0.0,0.0,0.0,0.0,0.0,0.0
96.435,2987,96,434000000,IMU,-7.258266766360447e-05,-0.0010912022097675758,0.08400517879087632,0.9964647178630093,0.0,0.0,0.0,0.0,0.0,0.0,0.0,0.0,0.0,0.04667638366215563,0.01156810247439919,0.06958148312590229,0.0,0.0,0.0,0.0,0.0,0.0,0.0,0.0,0.0,0.08187770912560759,-0.07122705701222158,9.90342015284693,0.0,0.0,0.0,0.0,0.0,0.0,0.0,0.0,0.0
96.444,2988,96,444000000,IMU,-7.279456047308543e-05,-0.0010705466301492142,0.08466321080488633,0.9964090472125754,0.0,0.0,0.0,0.0,0.0,0.0,0.0,0.0,0.0,0.005973050048538106,0.06126707706387213,0.0761266576551407,0.0,0.0,0.0,0.0,0.0,0.0,0.0,0.0,0.0,0.06075348642846862,-0.08884147347886769,10.0660705420079,0.0,0.0,0.0,0.0,0.0,0.0,0.0,0.0,0.0
96.454,2989,96,454000000,IMU,-5.518355427484819e-05,-0.0010410592335743179,0.08532770276680454,0.9963523956366981,0.0,0.0,0.0,0.0,0.0,0.0,0.0,0.0,0.0,-0.0066863003259980906,-0.003206338984926738,0.11356282184833993,0.0,0.0,0.0,0.0,0.0,0.0,0.0,0.0,0.0,0.05663230544802972,0.035384788385942424,10.001968317143016,0.0,0.0,0.0,0.0,0.0,0.0,0.0,0.0,0.0
96.465,2990,96,464000000,IMU,-3.716529576139595e-05,-0.001031072782595394,0.08598539574797749,0.9962958632985093,0.0,0.0,0.0,0.0,0.0,0.0,0.0,0.0,0.0,-0.03800157500713346,-0.011440513924235004,0.1267034953025536,0.0,0.0,0.0,0.0,0.0,0.0,0.0,0.0,0.0,-0.01553268522356588,-0.03727784810656243,9.970598325768469,0.0,0.0,0.0,0.0,0.0,0.0,0.0,0.0,0.0
96.474,2991,96,474000000,IMU,-4.181240254887809e-05,-0.0010536414159657353,0.08662949867352988,0.9962400403773494,0.0,0.0,0.0,0.0,0.0,0.0,0.0,0.0,0.0,0.06253031895065134,-0.050469342035749605,0.11235599952753934,0.0,0.0,0.0,0.0,0.0,0.0,0.0,0.0,0.0,-0.005863321021029771,0.05926676453009065,9.99142873469288,0.0,0.0,0.0,0.0,0.0,0.0,0.0,0.0,0.0
96.485,2992,96,484000000,IMU,-6.836286007832313e-05,-0.001087098426837394,0.08726661204461658,0.9961843965681174,0.0,0.0,0.0,0.0,0.0,0.0,0.0,0.0,0.0,-0.012286292240599227,0.02400310334155,0.16259178976821434,0.0,0.0,0.0,0.0,0.0,0.0,0.0,0.0,0.0,-0.0008690567598099858,-0.037221214943977794,10.00771854147199,0.0,0.0,0.0,0.0,0.0,0.0,0.0,0.0,0.0
96.494,2993,96,494000000,IMU,-9.599707435936896e-05,-0.0011026191733772006,0.08791020052202397,0.9961277888201381,0.0,0.0,0.0,0.0,0.0,0.0,0.0,0.0,0.0,0.017215964140826972,-0.022161902126481017,0.157503575118936,0.0,0.0,0.0,0.0,0.0,0.0,0.0,0.0,0.0,0.004005657344397687,-0.021609138410678026,10.019319323321747,0.0,0.0,0.0,0.0,0.0,0.0,0.0,0.0,0.0
96.505,2994,96,504000000,IMU,-9.958460063181252e-05,-0.001088027961366489,0.08857151163465773,0.9960692212917808,0.0,0.0,0.0,0.0,0.0,0.0,0.0,0.0,0.0,-0.004165947352024447,0.05617679834547538,0.08455236194495117,0.0,0.0,0.0,0.0,0.0,0.0,0.0,0.0,0.0,0.06769242838302038,-0.02284889716162955,10.010279985354423,0.0,0.0,0.0,0.0,0.0,0.0,0.0,0.0,0.0
96.514,2995,96,514000000,IMU,-7.66102210001874e-05,-0.0010587198364729231,0.08924552622334636,0.996009090968702,0.0,0.0,0.0,0.0,0.0,0.0,0.0,0.0,0.0,0.011308886155006907,-0.016788797084838412,0.13443991473070296,0.0,0.0,0.0,0.0,0.0,0.0,0.0,0.0,0.0,0.10345993581815835,0.03813577561979874,9.956999211880492,0.0,0.0,0.0,0.0,0.0,0.0,0.0,0.0,0.0
96.524,2996,96,524000000,IMU,-5.229818630599943e-05,-0.0010463457065091645,0.08991597555263053,0.9959488037876149,0.0,0.0,0.0,0.0,0.0,0.0,0.0,0.0,0.0,0.02009516029700183,-0.005467419345747226,0.20166936922017042,0.0,0.0,0.0,0.0,0.0,0.0,0.0,0.0,0.0,-0.06561103294385717,0.0436348489238918,10.03952872221044,0.0,0.0,0.0,0.0,0.0,0.0,0.0,0.0,0.0
96.535,2997,96,534000000,IMU,-5.4979191453959684e-05,-0.0010662498424319452,0.09063474308387146,0.9958836294641472,0.0,0.0,0.0,0.0,0.0,0.0,0.0,0.0,0.0,0.006475208806179795,0.027189512605381848,0.16156738337399068,0.0,0.0,0.0,0.0,0.0,0.0,0.0,0.0,0.0,-0.03136654020457735,0.07433391979136499,10.013629479482798,0.0,0.0,0.0,0.0,0.0,0.0,0.0,0.0,0.0
96.545,2998,96,544000000,IMU,-8.320059378189586e-05,-0.0010926007380331144,0.09121147195717044,0.9958309428234767,0.0,0.0,0.0,0.0,0.0,0.0,0.0,0.0,0.0,-0.018337318666537525,-0.0032276699551331608,0.08899439547231874,0.0,0.0,0.0,0.0,0.0,0.0,0.0,0.0,0.0,0.05682926159407603,-0.06775091396333431,9.982442393543183,0.0,0.0,0.0,0.0,0.0,0.0,0.0,0.0,0.0
96.555,2999,96,554000000,IMU,-0.00011755845151457809,-0.0011076379994838332,0.09185527687581085,0.9957717446423857,0.0,0.0,0.0,0.0,0.0,0.0,0.0,0.0,0.0,0.03380676622098777,-0.014242646479442822,0.12749195178669684,0.0,0.0,0.0,0.0,0.0,0.0,0.0,0.0,0.0,0.0604015231204935,-0.07700779779665205,9.943001462424471,0.0,0.0,0.0,0.0,0.0,0.0,0.0,0.0,0.0
96.564,3000,96,564000000,IMU,-0.0001268969423040303,-0.0010970046054421042,0.09251551466187914,0.9957106306678208,0.0,0.0,0.0,0.0,0.0,0.0,0.0,0.0,0.0,0.01350306707067002,0.09516406428644944,0.11213810658015298,0.0,0.0,0.0,0.0,0.0,0.0,0.0,0.0,0.0,0.017262300547924707,-0.022245014282641085,10.041984503362078,0.0,0.0,0.0,0.0,0.0,0.0,0.0,0.0,0.0
96.574,3001,96,574000000,IMU,-0.00010405591305747891,-0.0010748812937370854,0.09319418442515318,0.995647366185389,0.0,0.0,0.0,0.0,0.0,0.0,0.0,0.0,0.0,0.07640694604877192,0.02748409768671326,0.12122094823484991,0.0,0.0,0.0,0.0,0.0,0.0,0.0,0.0,0.0,0.05133678889203064,-0.024426604922914378,9.983894403535482,0.0,0.0,0.0,0.0,0.0,0.0,0.0,0.0,0.0
96.584,3002,96,584000000,IMU,-7.080585070305155e-05,-0.0010627256221768745,0.09387600385945093,0.9955833272509961,0.0,0.0,0.0,0.0,0.0,0.0,0.0,0.0,0.0,0.021589939088332146,0.001336908912176065,0.15548916275304833,0.0,0.0,0.0,0.0,0.0,0.0,0.0,0.0,0.0,0.008780758690743276,-0.021568016813844865,10.031145418511658,0.0,0.0,0.0,0.0,0.0,0.0,0.0,0.0,0.0
96.595,3003,96,594000000,IMU,-6.393861744971631e-05,-0.0010723874904966385,0.09454220294554322,0.9955202749111276,0.0,0.0,0.0,0.0,0.0,0.0,0.0,0.0,0.0,0.017312038390518335,0.04115614066121009,0.09942691555136891,0.0,0.0,0.0,0.0,0.0,0.0,0.0,0.0,0.0,-0.05663302325317722,0.03262626607785847,10.037435586964028,0.0,0.0,0.0,0.0,0.0,0.0,0.0,0.0,0.0
96.605,3004,96,604000000,IMU,-9.362016086345838e-05,-0.0010936197761678586,0.09519107359510275,0.9954584143694112,0.0,0.0,0.0,0.0,0.0,0.0,0.0,0.0,0.0,-0.0512273734766286,-0.06101397464440808,0.21320532725362895,0.0,0.0,0.0,0.0,0.0,0.0,0.0,0.0,0.0,-0.031016966498855707,0.01453263167451294,10.007958026260408,0.0,0.0,0.0,0.0,0.0,0.0,0.0,0.0,0.0
96.614,3005,96,614000000,IMU,-0.00013442573977747507,-0.001104401942645616,0.09583647226339277,0.9953964701616024,0.0,0.0,0.0,0.0,0.0,0.0,0.0,0.0,0.0,-0.05196800030128254,0.003379643238907621,0.13668019591563946,0.0,0.0,0.0,0.0,0.0,0.0,0.0,0.0,0.0,0.027542718125131302,-0.010757145045076136,10.054176375586199,0.0,0.0,0.0,0.0,0.0,0.0,0.0,0.0,0.0
96.625,3006,96,624000000,IMU,-0.00014918602051031054,-0.0010931859734608106,0.09656333943034197,0.9953262300200972,0.0,0.0,0.0,0.0,0.0,0.0,0.0,0.0,0.0,-0.009007913532125402,-0.010615947800385158,0.08847615724866495,0.0,0.0,0.0,0.0,0.0,0.0,0.0,0.0,0.0,0.008643998610770615,-0.02557065028035447,9.965207656194243,0.0,0.0,0.0,0.0,0.0,0.0,0.0,0.0,0.0
96.635,3007,96,634000000,IMU,-0.00012958161761635024,-0.0010786436176648726,0.09717547764299496,0.9952666709387019,0.0,0.0,0.0,0.0,0.0,0.0,0.0,0.0,0.0,-0.08061535355035905,-0.04127809138206522,0.1831844783128794,0.0,0.0,0.0,0.0,0.0,0.0,0.0,0.0,0.0,0.03102449094214958,-0.07617011586499772,9.980440882457641,0.0,0.0,0.0,0.0,0.0,0.0,0.0,0.0,0.0
96.645,3008,96,644000000,IMU,-9.543793385756348e-05,-0.0010733791191139845,0.09786285608607985,0.9951993268423882,0.0,0.0,0.0,0.0,0.0,0.0,0.0,0.0,0.0,-0.01583601093700351,0.008332378306497292,0.10098766836252707,0.0,0.0,0.0,0.0,0.0,0.0,0.0,0.0,0.0,-0.0729606855122984,0.03206946032937352,10.023313734924868,0.0,0.0,0.0,0.0,0.0,0.0,0.0,0.0,0.0
96.655,3009,96,654000000,IMU,-8.122417617165679e-05,-0.00108507893252612,0.09853978612544227,0.995132517083376,0.0,0.0,0.0,0.0,0.0,0.0,0.0,0.0,0.0,-0.02416145061997816,0.02109292086930597,0.07804245124765286,0.0,0.0,0.0,0.0,0.0,0.0,0.0,0.0,0.0,-0.011118034915757915,0.0210869192168049,9.970121449196354,0.0,0.0,0.0,0.0,0.0,0.0,0.0,0.0,0.0
96.665,3010,96,664000000,IMU,-0.0001057487269700034,-0.0010992933257519012,0.09919807359698253,0.9950670945047064,0.0,0.0,0.0,0.0,0.0,0.0,0.0,0.0,0.0,-0.03499195557288415,-0.013102450135906081,0.14627832548445088,0.0,0.0,0.0,0.0,0.0,0.0,0.0,0.0,0.0,-0.024259566624169546,-0.0014975093958620803,9.985218452613418,0.0,0.0,0.0,0.0,0.0,0.0,0.0,0.0,0.0
96.675,3011,96,674000000,IMU,-0.0001516409038772935,-0.0011004028831582868,0.09991309078808273,0.9949955479336092,0.0,0.0,0.0,0.0,0.0,0.0,0.0,0.0,0.0,-0.016597677765294597,-0.03139654677812417,0.24810269093114884,0.0,0.0,0.0,0.0,0.0,0.0,0.0,0.0,0.0,0.02399122941905201,-0.04309914455783322,9.967566564599268,0.0,0.0,0.0,0.0,0.0,0.0,0.0,0.0,0.0
96.685,3012,96,684000000,IMU,-0.00017003014134364837,-0.001088997833109923,0.10050768993501527,0.9949356710046119,0.0,0.0,0.0,0.0,0.0,0.0,0.0,0.0,0.0,-0.05878180383656395,0.004449937110485011,0.05292498844897173,0.0,0.0,0.0,0.0,0.0,0.0,0.0,0.0,0.0,0.008065788214300738,0.04839699824355545,10.047023313928145,0.0,0.0,0.0,0.0,0.0,0.0,0.0,0.0,0.0
96.695,3013,96,694000000,IMU,-0.00015137840636699948,-0.00107534686991507,0.10118856827757175,0.9948666716518464,0.0,0.0,0.0,0.0,0.0,0.0,0.0,0.0,0.0,-0.009736688571856252,0.05129012610715996,0.10921434571694329,0.0,0.0,0.0,0.0,0.0,0.0,0.0,0.0,0.0,0.030073617459988045,-0.009241167577961385,10.11491058133279,0.0,0.0,0.0,0.0,0.0,0.0,0.0,0.0,0.0
96.705,3014,96,704000000,IMU,-0.00010944017895556175,-0.0010762640247702225,0.10194962155518304,0.9947889747797526,0.0,0.0,0.0,0.0,0.0,0.0,0.0,0.0,0.0,-0.08159064272456722,0.03329136833241916,0.13356514332152833,0.0,0.0,0.0,0.0,0.0,0.0,0.0,0.0,0.0,0.011954712795521608,0.043586743475918864,9.917917671935387,0.0,0.0,0.0,0.0,0.0,0.0,0.0,0.0,0.0
96.715,3015,96,714000000,IMU,-9.658533035640876e-05,-0.0010897272026723925,0.10263207746692242,0.9947187843007297,0.0,0.0,0.0,0.0,0.0,0.0,0.0,0.0,0.0,-0.03660905950716076,-0.03378840019459677,0.05688083805916032,0.0,0.0,0.0,0.0,0.0,0.0,0.0,0.0,0.0,0.002698450783006302,-0.036503552631275596,10.054245165915738,0.0,0.0,0.0,0.0,0.0,0.0,0.0,0.0,0.0
96.725,3016,96,724000000,IMU,-0.00012380493238112644,-0.0010980151246387409,0.10329619704713848,0.9946500262457764,0.0,0.0,0.0,0.0,0.0,0.0,0.0,0.0,0.0,0.0687789077087908,0.0018168843416921927,0.06741183532719923,0.0,0.0,0.0,0.0,0.0,0.0,0.0,0.0,0.0,-0.003072699724706498,0.08551494605362708,9.90230479383875,0.0,0.0,0.0,0.0,0.0,0.0,0.0,0.0,0.0
96.735,3017,96,734000000,IMU,-0.00016680829287392843,-0.0010900250932860186,0.10395107564120458,0.9945818005037724,0.0,0.0,0.0,0.0,0.0,0.0,0.0,0.0,0.0,0.022591302532956777,0.008602070101012138,0.11031266502281648,0.0,0.0,0.0,0.0,0.0,0.0,0.0,0.0,0.0,0.04625466041225705,-0.046986344102493166,9.974056112224858,0.0,0.0,0.0,0.0,0.0,0.0,0.0,0.0,0.0
96.745,3018,96,744000000,IMU,-0.0001859916945177444,-0.0010745856101790348,0.10454710631820166,0.9945193377875297,0.0,0.0,0.0,0.0,0.0,0.0,0.0,0.0,0.0,0.03615010511756248,-0.006311643383451058,0.15540744917122812,0.0,0.0,0.0,0.0,0.0,0.0,0.0,0.0,0.0,0.06767126588206188,-0.03263619698196285,10.041811577080404,0.0,0.0,0.0,0.0,0.0,0.0,0.0,0.0,0.0
96.755,3019,96,754000000,IMU,-0.00017093005208439386,-0.0010637857924409245,0.10522604242840443,0.99444774580546,0.0,0.0,0.0,0.0,0.0,0.0,0.0,0.0,0.0,0.04473154136073652,0.045488379644542144,0.16342161610451117,0.0,0.0,0.0,0.0,0.0,0.0,0.0,0.0,0.0,0.03705004259616511,-0.005679654947251183,10.013764051916164,0.0,0.0,0.0,0.0,0.0,0.0,0.0,0.0,0.0
96.765,3020,96,764000000,IMU,-0.00013678214779966742,-0.0010721761263434424,0.10591814445632766,0.994374264753431,0.0,0.0,0.0,0.0,0.0,0.0,0.0,0.0,0.0,-0.013148371090187292,0.022326393920445275,0.15414768623680353,0.0,0.0,0.0,0.0,0.0,0.0,0.0,0.0,0.0,0.001605497441197628,0.09372583579185607,9.988997509040804,0.0,0.0,0.0,0.0,0.0,0.0,0.0,0.0,0.0
96.774,3021,96,774000000,IMU,-0.0001195272900634578,-0.0010900535940326023,0.10660681300726232,0.9943006511698682,0.0,0.0,0.0,0.0,0.0,0.0,0.0,0.0,0.0,-0.01401909399925193,-0.06658557436568407,0.16272627205538798,0.0,0.0,0.0,0.0,0.0,0.0,0.0,0.0,0.0,0.026825868529078815,0.03860075511537801,10.048022074433938,0.0,0.0,0.0,0.0,0.0,0.0,0.0,0.0,0.0
96.785,3022,96,784000000,IMU,-0.00013970394546221386,-0.001096326489783887,0.1072803919603463,0.9942281911371605,0.0,0.0,0.0,0.0,0.0,0.0,0.0,0.0,0.0,-0.04443244751207781,0.02824436839784673,0.15182564902155038,0.0,0.0,0.0,0.0,0.0,0.0,0.0,0.0,0.0,-0.030918703370443727,-0.029218213562019563,10.065679900005762,0.0,0.0,0.0,0.0,0.0,0.0,0.0,0.0,0.0
96.795,3023,96,794000000,IMU,-0.00018047788387853768,-0.0010804144323361708,0.1079425476900475,0.9941565301956073,0.0,0.0,0.0,0.0,0.0,0.0,0.0,0.0,0.0,-0.05529441119821872,-0.03564364135409084,0.1047589816334369,0.0,0.0,0.0,0.0,0.0,0.0,0.0,0.0,0.0,-0.08365727842449855,0.028383834992522755,10.00745521439614,0.0,0.0,0.0,0.0,0.0,0.0,0.0,0.0,0.0
96.805,3024,96,804000000,IMU,-0.000203336330640119,-0.0010560172291941131,0.1086074977608036,0.9940841286893608,0.0,0.0,0.0,0.0,0.0,0.0,0.0,0.0,0.0,0.02737485125650359,0.03940753741489635,0.15750497396941118,0.0,0.0,0.0,0.0,0.0,0.0,0.0,0.0,0.0,-0.007729973482567045,-0.015311416249409827,10.040599861801535,0.0,0.0,0.0,0.0,0.0,0.0,0.0,0.0,0.0
96.815,3025,96,814000000,IMU,-0.00018955349807315373,-0.0010458392987589484,0.10928705557894693,0.9940096628164723,0.0,0.0,0.0,0.0,0.0,0.0,0.0,0.0,0.0,0.0624857866275085,0.06646461565211462,0.12002366732214984,0.0,0.0,0.0,0.0,0.0,0.0,0.0,0.0,0.0,0.03828908246546327,-0.043642986754625926,9.992730324281403,0.0,0.0,0.0,0.0,0.0,0.0,0.0,0.0,0.0
96.825,3026,96,824000000,IMU,-0.00015528814630023658,-0.001061411642762072,0.109979505957621,0.9939332762113531,0.0,0.0,0.0,0.0,0.0,0.0,0.0,0.0,0.0,0.06675060256592637,0.012942474933511732,0.19151455387489155,0.0,0.0,0.0,0.0,0.0,0.0,0.0,0.0,0.0,0.17651971735789307,-0.015910860531855184,9.99450709343005,0.0,0.0,0.0,0.0,0.0,0.0,0.0,0.0,0.0
96.835,3027,96,834000000,IMU,-0.00013893989613519739,-0.0010842551799569672,0.11067074866329875,0.9938565240902304,0.0,0.0,0.0,0.0,0.0,0.0,0.0,0.0,0.0,-0.059493383783634037,0.01294018328699535,0.1923467605331384,0.0,0.0,0.0,0.0,0.0,0.0,0.0,0.0,0.0,0.016465833786329796,-0.011946346569899232,10.024431356109554,0.0,0.0,0.0,0.0,0.0,0.0,0.0,0.0,0.0
96.845,3028,96,844000000,IMU,-0.0001577734370829489,-0.0010871956001459041,0.11135080938062152,0.9937805544301771,0.0,0.0,0.0,0.0,0.0,0.0,0.0,0.0,0.0,-0.11216057556108375,0.042440151717107834,0.11689646812613394,0.0,0.0,0.0,0.0,0.0,0.0,0.0,0.0,0.0,0.03604143110337636,0.07670337799064506,9.945705463402343,0.0,0.0,0.0,0.0,0.0,0.0,0.0,0.0,0.0
96.855,3029,96,854000000,IMU,-0.00019434923143411367,-0.0010624134548186737,0.1120204666316664,0.993705312736956,0.0,0.0,0.0,0.0,0.0,0.0,0.0,0.0,0.0,-0.0570010306534144,0.021268623318726414,0.18952562775988352,0.0,0.0,0.0,0.0,0.0,0.0,0.0,0.0,0.0,0.09951562134203593,0.052881455859086074,10.025428137134842,0.0,0.0,0.0,0.0,0.0,0.0,0.0,0.0,0.0
96.864,3030,96,864000000,IMU,-0.00021515512265070006,-0.0010304555811110445,0.11268983235105542,0.9936296561366613,0.0,0.0,0.0,0.0,0.0,0.0,0.0,0.0,0.0,0.06470637147451275,-0.008478681091990795,0.12194460169838853,0.0,0.0,0.0,0.0,0.0,0.0,0.0,0.0,0.0,0.03593979327525228,-0.04501703895460593,10.002451536736306,0.0,0.0,0.0,0.0,0.0,0.0,0.0,0.0,0.0
96.874,3031,96,874000000,IMU,-0.00020523637593420656,-0.0010213920013161543,0.11336849855807139,0.9935524637235309,0.0,0.0,0.0,0.0,0.0,0.0,0.0,0.0,0.0,-0.00952459385952175,-0.012832438243737372,0.0885603136126512,0.0,0.0,0.0,0.0,0.0,0.0,0.0,0.0,0.0,-0.10581381187301586,-0.046421881124121545,9.973655230970715,0.0,0.0,0.0,0.0,0.0,0.0,0.0,0.0,0.0
96.885,3032,96,884000000,IMU,-0.00018143610393332672,-0.0010416453502122233,0.11405696651891023,0.9934736485908466,0.0,0.0,0.0,0.0,0.0,0.0,0.0,0.0,0.0,-0.022228708459609184,-0.0004143596858477618,0.14133091911782436,0.0,0.0,0.0,0.0,0.0,0.0,0.0,0.0,0.0,0.012332184200449733,0.04757393098628334,10.02385776403532,0.0,0.0,0.0,0.0,0.0,0.0,0.0,0.0,0.0
96.894,3033,96,894000000,IMU,-0.0001707950371595692,-0.0010686968311360942,0.11474753278389255,0.993394097242453,0.0,0.0,0.0,0.0,0.0,0.0,0.0,0.0,0.0,0.004043521304455904,-0.03258169864341476,0.1464246214884239,0.0,0.0,0.0,0.0,0.0,0.0,0.0,0.0,0.0,0.0034352185375175967,-0.04263863535998714,10.029597779083053,0.0,0.0,0.0,0.0,0.0,0.0,0.0,0.0,0.0
96.905,3034,96,904000000,IMU,-0.00018850788382155948,-0.0010709633777642403,0.11543193517714721,0.9933147969518425,0.0,0.0,0.0,0.0,0.0,0.0,0.0,0.0,0.0,-0.008874881165802703,0.014478030441268157,0.16160628588954576,0.0,0.0,0.0,0.0,0.0,0.0,0.0,0.0,0.0,0.1884040673227872,-0.014738674322359174,10.020372889809245,0.0,0.0,0.0,0.0,0.0,0.0,0.0,0.0,0.0
96.915,3035,96,914000000,IMU,-0.00021649859313988841,-0.0010400933028544888,0.11610939150110917,0.9932358634984557,0.0,0.0,0.0,0.0,0.0,0.0,0.0,0.0,0.0,-0.03224787333247588,0.025696835365981642,0.17189410970509342,0.0,0.0,0.0,0.0,0.0,0.0,0.0,0.0,0.0,0.05580410595691805,0.023055409607037246,10.002613209375387,0.0,0.0,0.0,0.0,0.0,0.0,0.0,0.0,0.0
96.925,3036,96,924000000,IMU,-0.00022980856236033735,-0.0010036634464015166,0.11678506940302548,0.9931566781793503,0.0,0.0,0.0,0.0,0.0,0.0,0.0,0.0,0.0,-0.003220326553487944,-0.0167745392312085,0.14084549301214974,0.0,0.0,0.0,0.0,0.0,0.0,0.0,0.0,0.0,0.03446897253598934,-0.03873373672177311,9.947485186884535,0.0,0.0,0.0,0.0,0.0,0.0,0.0,0.0,0.0
96.935,3037,96,934000000,IMU,-0.00021998574707502228,-0.0009951075565537881,0.11746506053325874,0.9930764929858827,0.0,0.0,0.0,0.0,0.0,0.0,0.0,0.0,0.0,0.054898216211833925,-0.08387343187968385,0.1242297011116613,0.0,0.0,0.0,0.0,0.0,0.0,0.0,0.0,0.0,0.058878609299297474,-0.049278563513374424,10.047992688267064,0.0,0.0,0.0,0.0,0.0,0.0,0.0,0.0,0.0
96.944,3038,96,944000000,IMU,-0.000202540999703414,-0.001019944977672579,0.11815113634021171,0.992995079378998,0.0,0.0,0.0,0.0,0.0,0.0,0.0,0.0,0.0,0.01987354953701604,0.01527862606457732,0.13623729119983694,0.0,0.0,0.0,0.0,0.0,0.0,0.0,0.0,0.0,0.011047281539581334,-0.013428255466250018,10.068915875512614,0.0,0.0,0.0,0.0,0.0,0.0,0.0,0.0,0.0
96.954,3039,96,954000000,IMU,-0.0001984882263201069,-0.0010498032522564455,0.11884014035885841,0.992912825758154,0.0,0.0,0.0,0.0,0.0,0.0,0.0,0.0,0.0,0.019203511611920854,0.004901005562386044,0.15602283611827375,0.0,0.0,0.0,0.0,0.0,0.0,0.0,0.0,0.0,0.07189597753788812,0.007894924256047962,9.977761845808747,0.0,0.0,0.0,0.0,0.0,0.0,0.0,0.0,0.0
96.964,3040,96,964000000,IMU,-0.00021534305249795068,-0.001046174501050225,0.11952791814053773,0.9928302654186525,0.0,0.0,0.0,0.0,0.0,0.0,0.0,0.0,0.0,0.013633758657231109,0.044003175098455395,0.13655207562388183,0.0,0.0,0.0,0.0,0.0,0.0,0.0,0.0,0.0,0.05733239490297455,-0.08546663144402103,9.967038739326924,0.0,0.0,0.0,0.0,0.0,0.0,0.0,0.0,0.0
96.975,3041,96,974000000,IMU,-0.00023668843130305044,-0.0010077303620092241,0.12021251535483476,0.9927476414528354,0.0,0.0,0.0,0.0,0.0,0.0,0.0,0.0,0.0,-0.0012137064829196458,-0.04342543372938401,0.1441891417608153,0.0,0.0,0.0,0.0,0.0,0.0,0.0,0.0,0.0,-0.043267675683876176,-0.005006839273049811,10.03429945248451,0.0,0.0,0.0,0.0,0.0,0.0,0.0,0.0,0.0
96.985,3042,96,984000000,IMU,-0.00024265366213764943,-0.000967636591762648,0.12089439447348349,0.9926648730480576,0.0,0.0,0.0,0.0,0.0,0.0,0.0,0.0,0.0,0.04241898602544527,0.030834780957384515,0.15923810496562224,0.0,0.0,0.0,0.0,0.0,0.0,0.0,0.0,0.0,-0.037761773071011126,0.010848583755095717,10.037701774588102,0.0,0.0,0.0,0.0,0.0,0.0,0.0,0.0,0.0
96.995,3043,96,994000000,IMU,-0.00023227600698355003,-0.0009609908589739918,0.12157573101765139,0.9925816662481478,0.0,0.0,0.0,0.0,0.0,0.0,0.0,0.0,0.0,-0.010132289360445926,0.03989860495557333,0.11013952935638166,0.0,0.0,0.0,0.0,0.0,0.0,0.0,0.0,0.0,-0.10687676443759365,0.06715895074186122,9.915138252473863,0.0,0.0,0.0,0.0,0.0,0.0,0.0,0.0,0.0
97.005,3044,97,4000000,IMU,-0.00022118296157993148,-0.0009909292941763623,0.12225891121541677,0.9924977217936838,0.0,0.0,0.0,0.0,0.0,0.0,0.0,0.0,0.0,0.03104905007845015,0.015450832099199386,0.09554639887142416,0.0,0.0,0.0,0.0,0.0,0.0,0.0,0.0,0.0,0.04263245541290666,-0.0388170902257506,10.0609558560043,0.0,0.0,0.0,0.0,0.0,0.0,0.0,0.0,0.0
97.015,3045,97,14000000,IMU,-0.00022477962851922436,-0.0010215686458311495,0.12294539274283889,0.992412885987949,0.0,0.0,0.0,0.0,0.0,0.0,0.0,0.0,0.0,-0.037866967401528326,-0.05565675409501017,0.15111359822737733,0.0,0.0,0.0,0.0,0.0,0.0,0.0,0.0,0.0,0.04702826249676649,-0.05900276666294882,9.964633625330249,0.0,0.0,0.0,0.0,0.0,0.0,0.0,0.0,0.0
97.025,3046,97,24000000,IMU,-0.00024172208901000018,-0.0010139922095345165,0.123635427194372,0.9923271610374755,0.0,0.0,0.0,0.0,0.0,0.0,0.0,0.0,0.0,0.09021301908861912,0.03201286993179737,0.07428920028780017,0.0,0.0,0.0,0.0,0.0,0.0,0.0,0.0,0.0,0.06557994777098694,-0.005058796384377088,9.99416435650218,0.0,0.0,0.0,0.0,0.0,0.0,0.0,0.0,0.0
97.035,3047,97,34000000,IMU,-0.00025547020067097364,-0.0009648064347583641,0.12439544684545593,0.9922322191340288,0.0,0.0,0.0,0.0,0.0,0.0,0.0,0.0,0.0,-0.03201766426893068,-0.0171426631019711,0.14183898116505111,0.0,0.0,0.0,0.0,0.0,0.0,0.0,0.0,0.0,0.08856003335171514,-0.10845648831469248,9.977761168728629,0.0,0.0,0.0,0.0,0.0,0.0,0.0,0.0,0.0
97.045,3048,97,44000000,IMU,-0.00025295143760747945,-0.0009274341289671054,0.12501392438823597,0.9921545215290607,0.0,0.0,0.0,0.0,0.0,0.0,0.0,0.0,0.0,-0.05062766108964617,0.04105787883068176,0.12814434666602897,0.0,0.0,0.0,0.0,0.0,0.0,0.0,0.0,0.0,0.007550464423136564,-0.005096774454447547,10.035456022440504,0.0,0.0,0.0,0.0,0.0,0.0,0.0,0.0,0.0
97.055,3049,97,54000000,IMU,-0.0002410181101318095,-0.0009247427176680673,0.125695842602432,0.9920683655442509,0.0,0.0,0.0,0.0,0.0,0.0,0.0,0.0,0.0,0.01977010597515975,-0.020099248448715336,0.1293986874873291,0.0,0.0,0.0,0.0,0.0,0.0,0.0,0.0,0.0,-0.07015634562785211,-0.014319455711925532,9.997288239128741,0.0,0.0,0.0,0.0,0.0,0.0,0.0,0.0,0.0
97.065,3050,97,64000000,IMU,-0.0002360875788595592,-0.0009605148934001865,0.12637540451878773,0.9919819952027897,0.0,0.0,0.0,0.0,0.0,0.0,0.0,0.0,0.0,-0.022559174171347042,0.028777349171080234,0.11107561341036759,0.0,0.0,0.0,0.0,0.0,0.0,0.0,0.0,0.0,0.035237447330479996,-0.02584727542278535,10.00330370856709,0.0,0.0,0.0,0.0,0.0,0.0,0.0,0.0,0.0
97.075,3051,97,74000000,IMU,-0.00024758571785335004,-0.0009942691984885185,0.12705876481500558,0.9918946619544631,0.0,0.0,0.0,0.0,0.0,0.0,0.0,0.0,0.0,-0.01808443896387054,0.004743159141414023,0.10154026422148607,0.0,0.0,0.0,0.0,0.0,0.0,0.0,0.0,0.0,-0.03141265463516811,-0.050136420264699603,10.037799336395421,0.0,0.0,0.0,0.0,0.0,0.0,0.0,0.0,0.0
97.085,3052,97,84000000,IMU,-0.00026366540463093,-0.0009831872156954003,0.12775027555877663,0.9918058433575141,0.0,0.0,0.0,0.0,0.0,0.0,0.0,0.0,0.0,0.011068969314091678,-0.0015729000190267007,0.16136813640805536,0.0,0.0,0.0,0.0,0.0,0.0,0.0,0.0,0.0,0.005062490112604623,-0.019991099043332867,10.037516298838575,0.0,0.0,0.0,0.0,0.0,0.0,0.0,0.0,0.0
97.095,3053,97,94000000,IMU,-0.0002683092810837509,-0.0009330465094389967,0.128447077811823,0.9917158895752071,0.0,0.0,0.0,0.0,0.0,0.0,0.0,0.0,0.0,0.009325656109305787,-0.018876407614005646,0.13903965024683226,0.0,0.0,0.0,0.0,0.0,0.0,0.0,0.0,0.0,0.0016137604301239544,-0.023037020916703482,10.035207793925911,0.0,0.0,0.0,0.0,0.0,0.0,0.0,0.0,0.0
97.105,3054,97,104000000,IMU,-0.0002578391798685783,-0.0008921712136085016,0.12913972654142514,0.9916259721176572,0.0,0.0,0.0,0.0,0.0,0.0,0.0,0.0,0.0,-0.05616349489246356,0.012074980621727942,0.09777641811417884,0.0,0.0,0.0,0.0,0.0,0.0,0.0,0.0,0.0,-0.11442231604841363,-0.11218153244962333,10.01342905688476,0.0,0.0,0.0,0.0,0.0,0.0,0.0,0.0,0.0
97.114,3055,97,114000000,IMU,-0.00024700398556717153,-0.00089376952427115,0.12982191837311893,0.9915368927452936,0.0,0.0,0.0,0.0,0.0,0.0,0.0,0.0,0.0,-0.03507489398130349,0.03840329733825317,0.17382533148454407,0.0,0.0,0.0,0.0,0.0,0.0,0.0,0.0,0.0,-0.12053336489585484,-0.03377800805098122,10.049204049930017,0.0,0.0,0.0,0.0,0.0,0.0,0.0,0.0,0.0
97.125,3056,97,124000000,IMU,-0.0002526982268207147,-0.0009277127160427505,0.13049795016989105,0.9914481128602641,0.0,0.0,0.0,0.0,0.0,0.0,0.0,0.0,0.0,0.0037607569554252798,0.022963140564892723,0.17096123811820546,0.0,0.0,0.0,0.0,0.0,0.0,0.0,0.0,0.0,0.030771728882395682,0.07370737635477136,9.978293069869629,0.0,0.0,0.0,0.0,0.0,0.0,0.0,0.0,0.0
97.135,3057,97,134000000,IMU,-0.0002719395244595192,-0.0009485636342291988,0.13117867448757836,0.991358250904086,0.0,0.0,0.0,0.0,0.0,0.0,0.0,0.0,0.0,-0.030609533447483246,0.009892030590682957,0.16925684941745173,0.0,0.0,0.0,0.0,0.0,0.0,0.0,0.0,0.0,0.0727597133393846,0.013008924199673446,9.927923573700385,0.0,0.0,0.0,0.0,0.0,0.0,0.0,0.0,0.0
97.145,3058,97,144000000,IMU,-0.00028554216835919357,-0.000926964330942618,0.13187187743835332,0.9912662947683046,0.0,0.0,0.0,0.0,0.0,0.0,0.0,0.0,0.0,-0.02242980043103402,0.02343677688802167,0.20935766498721436,0.0,0.0,0.0,0.0,0.0,0.0,0.0,0.0,0.0,0.0008155390050153533,-0.013361611184264106,10.075349709435406,0.0,0.0,0.0,0.0,0.0,0.0,0.0,0.0,0.0
97.155,3059,97,154000000,IMU,-0.00027868064854204413,-0.0008786350088615033,0.13257314653445657,0.9911727958108874,0.0,0.0,0.0,0.0,0.0,0.0,0.0,0.0,0.0,0.04545622948431786,-0.007709436423412633,0.09811336456978564,0.0,0.0,0.0,0.0,0.0,0.0,0.0,0.0,0.0,0.014932018778359119,0.007795137073668874,9.998631835853114,0.0,0.0,0.0,0.0,0.0,0.0,0.0,0.0,0.0
97.165,3060,97,164000000,IMU,-0.0002608729981448097,-0.0008451294454906835,0.13326878605644554,0.9910795368508729,0.0,0.0,0.0,0.0,0.0,0.0,0.0,0.0,0.0,0.010419040105392255,0.00882165343184941,0.08416270193652658,0.0,0.0,0.0,0.0,0.0,0.0,0.0,0.0,0.0,0.0663994516607314,0.05998748964577234,9.957120012544296,0.0,0.0,0.0,0.0,0.0,0.0,0.0,0.0,0.0
97.175,3061,97,174000000,IMU,-0.000254807759239547,-0.000852481988064076,0.13394971518545037,0.9909877305745024,0.0,0.0,0.0,0.0,0.0,0.0,0.0,0.0,0.0,0.04974961538626084,0.06846119374496867,0.23052213385455222,0.0,0.0,0.0,0.0,0.0,0.0,0.0,0.0,0.0,-0.0554588901039071,-0.03744076847610204,9.982242174224524,0.0,0.0,0.0,0.0,0.0,0.0,0.0,0.0,0.0
97.185,3062,97,184000000,IMU,-0.00027091555752072733,-0.0008818312888291372,0.134622457714883,0.9908965348900678,0.0,0.0,0.0,0.0,0.0,0.0,0.0,0.0,0.0,-0.037912155664885795,0.0529653592081851,0.12838107524317266,0.0,0.0,0.0,0.0,0.0,0.0,0.0,0.0,0.0,0.008928534775592772,-0.009297107588233686,9.896524405551046,0.0,0.0,0.0,0.0,0.0,0.0,0.0,0.0,0.0
97.195,3063,97,194000000,IMU,-0.0002951624847682876,-0.0008932719488484635,0.1353011879752353,0.990804069166464,0.0,0.0,0.0,0.0,0.0,0.0,0.0,0.0,0.0,-0.01862525025986595,0.0377517389916954,0.17237859168225309,0.0,0.0,0.0,0.0,0.0,0.0,0.0,0.0,0.0,-0.10682196445701304,-0.03625761030355297,9.952107886424374,0.0,0.0,0.0,0.0,0.0,0.0,0.0,0.0,0.0
97.205,3064,97,204000000,IMU,-0.00030148243815255937,-0.000865542443243805,0.13599628085925,0.9907089237193083,0.0,0.0,0.0,0.0,0.0,0.0,0.0,0.0,0.0,-0.005141160094183776,0.01950136351488331,0.11569090054042074,0.0,0.0,0.0,0.0,0.0,0.0,0.0,0.0,0.0,-0.0345077119445513,0.03232443990374827,10.060821320136263,0.0,0.0,0.0,0.0,0.0,0.0,0.0,0.0,0.0
97.215,3065,97,214000000,IMU,-0.0002837299821257018,-0.0008198654990110784,0.1367012812475677,0.9906119356353092,0.0,0.0,0.0,0.0,0.0,0.0,0.0,0.0,0.0,0.036660477764083474,-0.04380087123081708,0.13117297639485936,0.0,0.0,0.0,0.0,0.0,0.0,0.0,0.0,0.0,-0.03203835840914751,0.05103272742094374,10.00346304225168,0.0,0.0,0.0,0.0,0.0,0.0,0.0,0.0,0.0
97.224,3066,97,224000000,IMU,-0.0002616267315317958,-0.000793925202087331,0.13739855001784385,0.9905154918966291,0.0,0.0,0.0,0.0,0.0,0.0,0.0,0.0,0.0,-0.0026879744041362823,0.05935197314228242,0.1304362650653139,0.0,0.0,0.0,0.0,0.0,0.0,0.0,0.0,0.0,-0.02172098530664588,0.0990757848114727,10.02792754389178,0.0,0.0,0.0,0.0,0.0,0.0,0.0,0.0,0.0
97.234,3067,97,234000000,IMU,-0.0002622238599444108,-0.0008051350410469913,0.13807736830727002,0.9904210838615823,0.0,0.0,0.0,0.0,0.0,0.0,0.0,0.0,0.0,0.0006517174329800238,-0.038005712076747494,0.18217611181491472,0.0,0.0,0.0,0.0,0.0,0.0,0.0,0.0,0.0,0.12452210408487588,-0.03406500528728263,10.064138993512982,0.0,0.0,0.0,0.0,0.0,0.0,0.0,0.0,0.0
97.245,3068,97,244000000,IMU,-0.0002883829971579764,-0.0008300766004096796,0.1387465026763695,0.9903275396570373,0.0,0.0,0.0,0.0,0.0,0.0,0.0,0.0,0.0,-0.0511213896579626,0.01843425232096693,0.13400119396864058,0.0,0.0,0.0,0.0,0.0,0.0,0.0,0.0,0.0,0.0457688131745156,-0.1055110975703425,9.911058901820407,0.0,0.0,0.0,0.0,0.0,0.0,0.0,0.0,0.0
97.255,3069,97,254000000,IMU,-0.0003136545625716989,-0.0008296334324248424,0.1394246416626837,0.9902322872066007,0.0,0.0,0.0,0.0,0.0,0.0,0.0,0.0,0.0,0.0467373888263466,0.06047158457487166,0.07860052554979188,0.0,0.0,0.0,0.0,0.0,0.0,0.0,0.0,0.0,0.014041489835047778,0.052669097612157864,10.104637392484676,0.0,0.0,0.0,0.0,0.0,0.0,0.0,0.0,0.0
97.265,3070,97,264000000,IMU,-0.0003116334494768036,-0.0007959242080012946,0.14012176553756733,0.9901339102423893,0.0,0.0,0.0,0.0,0.0,0.0,0.0,0.0,0.0,0.05290449783408249,-0.01787975576491764,0.15352704527707503,0.0,0.0,0.0,0.0,0.0,0.0,0.0,0.0,0.0,0.0419348908860957,0.06222660264090547,9.98992888401441,0.0,0.0,0.0,0.0,0.0,0.0,0.0,0.0,0.0
97.274,3071,97,274000000,IMU,-0.00028467033327429824,-0.0007559743986488165,0.1408285717534447,0.990033666520182,0.0,0.0,0.0,0.0,0.0,0.0,0.0,0.0,0.0,0.03826558186148365,0.0577924050626973,0.09426003085986437,0.0,0.0,0.0,0.0,0.0,0.0,0.0,0.0,0.0,-0.03487480493931266,-0.006644438576555904,9.982788304199271,0.0,0.0,0.0,0.0,0.0,0.0,0.0,0.0,0.0
97.284,3072,97,284000000,IMU,-0.0002638182783391312,-0.0007405086904190985,0.14152442221610737,0.9899344523569186,0.0,0.0,0.0,0.0,0.0,0.0,0.0,0.0,0.0,-0.010136392442559119,0.043139708345201394,0.14322997256132597,0.0,0.0,0.0,0.0,0.0,0.0,0.0,0.0,0.0,-0.06428737866441633,-0.005572083710269262,9.90815979420387,0.0,0.0,0.0,0.0,0.0,0.0,0.0,0.0,0.0
97.295,3073,97,294000000,IMU,-0.0002740770726556283,-0.0007520693757953633,0.14220047354279927,0.989837554651073,0.0,0.0,0.0,0.0,0.0,0.0,0.0,0.0,0.0,0.044318549578730076,-0.011643660517346523,0.07910134415803077,0.0,0.0,0.0,0.0,0.0,0.0,0.0,0.0,0.0,-0.053883039233644923,0.01145016530092017,9.996119970524758,0.0,0.0,0.0,0.0,0.0,0.0,0.0,0.0,0.0
97.305,3074,97,304000000,IMU,-0.0003062451805233283,-0.0007642322378131268,0.1428681247590255,0.9897413910162672,0.0,0.0,0.0,0.0,0.0,0.0,0.0,0.0,0.0,-0.05693147956359806,0.052173686986920535,0.10261344323566791,0.0,0.0,0.0,0.0,0.0,0.0,0.0,0.0,0.0,0.02135142195832921,0.005202421080563364,10.051377436275526,0.0,0.0,0.0,0.0,0.0,0.0,0.0,0.0,0.0
97.315,3075,97,314000000,IMU,-0.0003268653294052158,-0.000750999131282926,0.1435471559357236,0.9896431393093809,0.0,0.0,0.0,0.0,0.0,0.0,0.0,0.0,0.0,-0.012895080205189376,0.0281168311711376,0.1698504771212843,0.0,0.0,0.0,0.0,0.0,0.0,0.0,0.0,0.0,-0.02959568036875567,-0.01359106933796251,10.028803530062273,0.0,0.0,0.0,0.0,0.0,0.0,0.0,0.0,0.0
97.325,3076,97,324000000,IMU,-0.0003126802988231389,-0.0007146792283653093,0.1442474684663886,0.9895413378458069,0.0,0.0,0.0,0.0,0.0,0.0,0.0,0.0,0.0,1.7636206961151035e-05,0.041898455864853086,0.14435167960817985,0.0,0.0,0.0,0.0,0.0,0.0,0.0,0.0,0.0,0.07221566975014125,-0.001157463543471366,9.945451095269203,0.0,0.0,0.0,0.0,0.0,0.0,0.0,0.0,0.0
97.335,3077,97,334000000,IMU,-0.00027842538215628384,-0.0006835576974054627,0.14495492100387408,0.9894379849717423,0.0,0.0,0.0,0.0,0.0,0.0,0.0,0.0,0.0,0.03266947638225557,0.006257824562956851,0.14037650793978956,0.0,0.0,0.0,0.0,0.0,0.0,0.0,0.0,0.0,-0.05226173909249002,-0.039478915762496666,9.958068018409328,0.0,0.0,0.0,0.0,0.0,0.0,0.0,0.0,0.0
97.345,3078,97,344000000,IMU,-0.000262196702281051,-0.0006776214152622831,0.1456478564063813,0.989336228997166,0.0,0.0,0.0,0.0,0.0,0.0,0.0,0.0,0.0,0.07205143627193371,0.0028713598934721083,0.13145124584453424,0.0,0.0,0.0,0.0,0.0,0.0,0.0,0.0,0.0,0.0025356790940941464,-0.02438447137791037,9.966346862297955,0.0,0.0,0.0,0.0,0.0,0.0,0.0,0.0,0.0
97.355,3079,97,354000000,IMU,-0.0002835040940842507,-0.0006883499078220566,0.14631908360588064,0.9892371664937424,0.0,0.0,0.0,0.0,0.0,0.0,0.0,0.0,0.0,-0.08321394650604547,-0.0077702335429616,0.06969443178160722,0.0,0.0,0.0,0.0,0.0,0.0,0.0,0.0,0.0,0.02030125606177089,0.013482553641076138,9.962093461385365,0.0,0.0,0.0,0.0,0.0,0.0,0.0,0.0,0.0
97.365,3080,97,364000000,IMU,-0.0003222249956006738,-0.0006902287545865213,0.14698406427637042,0.9891385669379789,0.0,0.0,0.0,0.0,0.0,0.0,0.0,0.0,0.0,-0.006554278266701535,0.047243163659916286,0.13839075897496042,0.0,0.0,0.0,0.0,0.0,0.0,0.0,0.0,0.0,0.08573493582704957,0.0028269317681684225,9.998333774649206,0.0,0.0,0.0,0.0,0.0,0.0,0.0,0.0,0.0
97.374,3081,97,374000000,IMU,-0.00033607120500330124,-0.0006673620455379331,0.14766425606763955,0.9890372637894065,0.0,0.0,0.0,0.0,0.0,0.0,0.0,0.0,0.0,0.01058909224557996,-0.013821529691662018,0.22130591715854225,0.0,0.0,0.0,0.0,0.0,0.0,0.0,0.0,0.0,0.11939041827832689,-0.015565339809162589,10.092640815771821,0.0,0.0,0.0,0.0,0.0,0.0,0.0,0.0,0.0
97.384,3082,97,384000000,IMU,-0.0003104915337428292,-0.0006331829524274618,0.14836570687098594,0.988932313001769,0.0,0.0,0.0,0.0,0.0,0.0,0.0,0.0,0.0,-0.009117952547484817,0.01939405403810075,0.13014444401790284,0.0,0.0,0.0,0.0,0.0,0.0,0.0,0.0,0.0,0.04129780435330016,-0.006121791733403433,10.021762889290034,0.0,0.0,0.0,0.0,0.0,0.0,0.0,0.0,0.0
97.394,3083,97,394000000,IMU,-0.00027272804855972836,-0.0006130195257950911,0.149071419654496,0.9888262039755347,0.0,0.0,0.0,0.0,0.0,0.0,0.0,0.0,0.0,-0.01662399642382914,-0.06215740759287716,0.22497892280124498,0.0,0.0,0.0,0.0,0.0,0.0,0.0,0.0,0.0,-0.03181971160851307,0.007926057721075637,9.99396321501547,0.0,0.0,0.0,0.0,0.0,0.0,0.0,0.0,0.0
97.405,3084,97,404000000,IMU,-0.00026465617949717515,-0.0006147409591068348,0.1497594943236639,0.9887222288947388,0.0,0.0,0.0,0.0,0.0,0.0,0.0,0.0,0.0,-0.018354419448630158,-0.025301354529603772,0.10533613795965685,0.0,0.0,0.0,0.0,0.0,0.0,0.0,0.0,0.0,0.002776979248486461,0.058140538114021124,10.003044902631178,0.0,0.0,0.0,0.0,0.0,0.0,0.0,0.0,0.0
97.415,3085,97,414000000,IMU,-0.0002943672396081299,-0.0006177875570765992,0.15042834344209588,0.9886206781044635,0.0,0.0,0.0,0.0,0.0,0.0,0.0,0.0,0.0,-0.019089040268171,0.029960432896267916,0.12996726900292754,0.0,0.0,0.0,0.0,0.0,0.0,0.0,0.0,0.0,0.04864351021797007,0.04853129463010963,10.009953737214156,0.0,0.0,0.0,0.0,0.0,0.0,0.0,0.0,0.0
97.425,3086,97,424000000,IMU,-0.0003281027289741088,-0.0006031786568892007,0.15109491011764126,0.9885190219012729,0.0,0.0,0.0,0.0,0.0,0.0,0.0,0.0,0.0,-0.046759752441874886,0.02842388462542782,0.1482246447709925,0.0,0.0,0.0,0.0,0.0,0.0,0.0,0.0,0.0,0.03538708163677044,-0.048538012092333396,9.999662710635445,0.0,0.0,0.0,0.0,0.0,0.0,0.0,0.0,0.0
97.435,3087,97,434000000,IMU,-0.00032908542758686876,-0.0005730964329670251,0.1517777349162221,0.9884144284898724,0.0,0.0,0.0,0.0,0.0,0.0,0.0,0.0,0.0,-0.0081814554311578,0.008440737277907022,0.14106746440511475,0.0,0.0,0.0,0.0,0.0,0.0,0.0,0.0,0.0,-0.015267123588836112,-0.06743841238151475,9.980524109933008,0.0,0.0,0.0,0.0,0.0,0.0,0.0,0.0,0.0
97.445,3088,97,444000000,IMU,-0.0002947081812587771,-0.0005481428845263925,0.1524793629423094,0.9883064588290281,0.0,0.0,0.0,0.0,0.0,0.0,0.0,0.0,0.0,-0.018239878629478012,0.014588717280492072,0.09997214464625334,0.0,0.0,0.0,0.0,0.0,0.0,0.0,0.0,0.0,-0.058744405089727364,-0.019204470942399268,9.990122866850593,0.0,0.0,0.0,0.0,0.0,0.0,0.0,0.0,0.0
97.455,3089,97,454000000,IMU,-0.0002603756972783707,-0.0005407841459727574,0.15318049265428726,0.9881980451443899,0.0,0.0,0.0,0.0,0.0,0.0,0.0,0.0,0.0,-0.041327836319759274,0.00928760251918981,0.1385291408474856,0.0,0.0,0.0,0.0,0.0,0.0,0.0,0.0,0.0,0.09517436782717885,0.036086295793006144,9.97900051300228,0.0,0.0,0.0,0.0,0.0,0.0,0.0,0.0,0.0
97.465,3090,97,464000000,IMU,-0.00026560961411332853,-0.0005426997459836789,0.15386246475720006,0.9880920892646383,0.0,0.0,0.0,0.0,0.0,0.0,0.0,0.0,0.0,-0.03374219512572954,-0.08080495046456393,0.1488437747848407,0.0,0.0,0.0,0.0,0.0,0.0,0.0,0.0,0.0,-0.01381592147407433,0.03535363912978062,9.965045963364028,0.0,0.0,0.0,0.0,0.0,0.0,0.0,0.0,0.0
97.475,3091,97,474000000,IMU,-0.00030329300927563744,-0.0005337886138455706,0.15452748502409427,0.9879882992501454,0.0,0.0,0.0,0.0,0.0,0.0,0.0,0.0,0.0,0.029434104094953825,-0.013964971060124436,0.13619030491117448,0.0,0.0,0.0,0.0,0.0,0.0,0.0,0.0,0.0,-0.04483603312804925,0.02758410813778308,9.951123644780441,0.0,0.0,0.0,0.0,0.0,0.0,0.0,0.0,0.0
97.485,3092,97,484000000,IMU,-0.00033055080759617075,-0.0005069133222165577,0.15519473821340204,0.987883711276748,0.0,0.0,0.0,0.0,0.0,0.0,0.0,0.0,0.0,0.029321083409678837,-0.042502960319131894,0.15894698410561223,0.0,0.0,0.0,0.0,0.0,0.0,0.0,0.0,0.0,0.010430542759288702,-0.08819785799822093,9.955972259920028,0.0,0.0,0.0,0.0,0.0,0.0,0.0,0.0,0.0
97.495,3093,97,494000000,IMU,-0.00031759448829518573,-0.0004766677773571045,0.15587892253309862,0.98777600367264,0.0,0.0,0.0,0.0,0.0,0.0,0.0,0.0,0.0,0.005193157076844656,-0.03064693718745634,0.1266692024528029,0.0,0.0,0.0,0.0,0.0,0.0,0.0,0.0,0.0,-0.06289082241997734,-0.06905172869156646,9.992408006208581,0.0,0.0,0.0,0.0,0.0,0.0,0.0,0.0,0.0
97.505,3094,97,504000000,IMU,-0.0002789239471889221,-0.0004638425176465489,0.15657723859033515,0.9876655686045634,0.0,0.0,0.0,0.0,0.0,0.0,0.0,0.0,0.0,0.009969157027452555,-0.01610942326181066,0.1355598774903097,0.0,0.0,0.0,0.0,0.0,0.0,0.0,0.0,0.0,-0.043565186334624445,0.1316607217258414,10.020376106016357,0.0,0.0,0.0,0.0,0.0,0.0,0.0,0.0,0.0
97.515,3095,97,514000000,IMU,-0.0002564103054382355,-0.0004660443836126689,0.15727113092722292,0.9875553191762273,0.0,0.0,0.0,0.0,0.0,0.0,0.0,0.0,0.0,0.017220115936166947,-0.05914928798539456,0.17730827078964478,0.0,0.0,0.0,0.0,0.0,0.0,0.0,0.0,0.0,0.08934762477727065,0.07219134614090425,9.935247339648253,0.0,0.0,0.0,0.0,0.0,0.0,0.0,0.0,0.0
97.525,3096,97,524000000,IMU,-0.00027453055190123304,-0.00046269237268284976,0.15794723295250454,0.9874474072837457,0.0,0.0,0.0,0.0,0.0,0.0,0.0,0.0,0.0,-0.012322931942728748,0.06434229869959336,0.14065350572652813,0.0,0.0,0.0,0.0,0.0,0.0,0.0,0.0,0.0,0.026854935553945074,-0.050360195117693435,9.978338066173489,0.0,0.0,0.0,0.0,0.0,0.0,0.0,0.0,0.0
97.535,3097,97,534000000,IMU,-0.0003122416684916428,-0.0004383393741869673,0.1586112883462659,0.987340959128543,0.0,0.0,0.0,0.0,0.0,0.0,0.0,0.0,0.0,0.006116757046813968,-0.0630666256895213,0.1406442157529873,0.0,0.0,0.0,0.0,0.0,0.0,0.0,0.0,0.0,-0.05458221185610029,-0.042907884033514365,10.037205370203631,0.0,0.0,0.0,0.0,0.0,0.0,0.0,0.0,0.0
97.545,3098,97,544000000,IMU,-0.0003253871234968285,-0.00040344545310510145,0.15928067384264488,0.9872332036024818,0.0,0.0,0.0,0.0,0.0,0.0,0.0,0.0,0.0,0.0036610759488540125,0.04778481658154921,0.16789224205130085,0.0,0.0,0.0,0.0,0.0,0.0,0.0,0.0,0.0,0.0678672290380493,-0.03566536786551105,9.91886080938953,0.0,0.0,0.0,0.0,0.0,0.0,0.0,0.0,0.0
97.555,3099,97,554000000,IMU,-0.0002996792423591692,-0.00038112686832824326,0.15996490809074537,0.987122582617874,0.0,0.0,0.0,0.0,0.0,0.0,0.0,0.0,0.0,0.00099937771132199,0.03044278225128801,0.23374672317578005,0.0,0.0,0.0,0.0,0.0,0.0,0.0,0.0,0.0,-0.06413621155817359,0.01750373980552975,9.901628437133988,0.0,0.0,0.0,0.0,0.0,0.0,0.0,0.0,0.0
97.565,3100,97,564000000,IMU,-0.00026531494996899144,-0.00038122235877102907,0.16065715257723795,0.9870101638804255,0.0,0.0,0.0,0.0,0.0,0.0,0.0,0.0,0.0,0.00856581205658832,-0.006896264023589167,0.12831748470515542,0.0,0.0,0.0,0.0,0.0,0.0,0.0,0.0,0.0,-0.01721746911262994,-0.027948715736443967,9.960514948219666,0.0,0.0,0.0,0.0,0.0,0.0,0.0,0.0,0.0
97.575,3101,97,574000000,IMU,-0.0002588295406734174,-0.00038395981149035464,0.16134272280225828,0.9868983287962776,0.0,0.0,0.0,0.0,0.0,0.0,0.0,0.0,0.0,0.02668595334798316,-0.02966642856272627,0.09228230417160516,0.0,0.0,0.0,0.0,0.0,0.0,0.0,0.0,0.0,0.07896139185135187,-0.020672894972031626,9.946475468024392,0.0,0.0,0.0,0.0,0.0,0.0,0.0,0.0,0.0
97.585,3102,97,584000000,IMU,-0.00029228369897286104,-0.0003631089653951758,0.16207994468130318,0.9867775201402921,0.0,0.0,0.0,0.0,0.0,0.0,0.0,0.0,0.0,-0.007161084801890939,0.007402763827993398,0.11428372286886039,0.0,0.0,0.0,0.0,0.0,0.0,0.0,0.0,0.0,-0.03618705237382133,-0.05455917824615967,9.959846381578732,0.0,0.0,0.0,0.0,0.0,0.0,0.0,0.0,0.0
